time [ms], BMP temp [degC], BMP pres [mbar], BMP alt [m], BNO x [deg], BNO y [deg], BNO z [deg], BNO xa [m/s^2], BNO ya [], BNO za [], BNO xg [rad/s], BNO yg [], BNO zg [], BNO xm [uT], BNO ym [], BNO zm [], GPS lat [deg.min], GPS lon [deg.min], GPS speed [m/s], GPS angle [deg], GPS alt [m],GPS Sat, ICM temp [degC], ICM accel x [m/s^2], ICM accel y [m/s^2], ICM accel z [m/s^2], ICM gyro x [rad/s], ICM gyro y [rad/s], ICM gyro z [rad/s], ICM mag x [], ICM mag y [], ICM mag z []
88,26.17,998.62,122.51,3.31,-5.37,-94.44,-1.08,11.73,-0.61,-1.08,11.73,-0.61,-1.08,11.73,-0.61,0,0,0,0,0,0,27.57,0.65,-10.01,-0.45,0,-0.01,0,43.65,19.65,-62.85
136,26.17,998.63,122.47,3.31,-5.37,-94.44,-1.07,11.74,-0.86,-1.07,11.74,-0.86,-1.07,11.74,-0.86,0,0,0,0,0,0,27.71,0.73,-9.97,-0.55,-0.01,0.01,0.01,43.65,28.2,-58.35
177,26.17,998.63,122.46,3.31,-5.37,-94.44,-1.01,11.75,-0.7,-1.01,11.75,-0.7,-1.01,11.75,-0.7,0,0,0,0,0,0,27.61,0.7,-9.93,-0.64,-0.02,-0.01,0,43.65,28.2,-58.35
226,26.17,998.63,122.48,3.31,-5.37,-94.44,-1.06,11.75,-0.94,-1.06,11.75,-0.94,-1.06,11.75,-0.94,0,0,0,0,0,0,27.71,0.77,-9.96,-0.73,-0.01,-0.01,0,44.85,27.3,-61.35
268,26.17,998.62,122.5,3.31,-5.37,-94.5,-1.13,11.76,-1.01,-1.13,11.76,-1.01,-1.13,11.76,-1.01,0,0,0,0,0,0,27.61,0.76,-10.03,-0.85,-0.01,0,-0.01,44.85,27.3,-61.35
313,26.18,998.62,122.53,3.37,-5.37,-94.5,-1.11,11.75,-1.13,-1.11,11.75,-1.13,-1.11,11.75,-1.13,0,0,0,0,0,0,27.52,0.79,-9.98,-0.94,0,0.02,0,44.85,27.3,-61.35
356,26.18,998.62,122.51,3.44,-5.37,-94.5,-1.14,11.73,-1.07,-1.14,11.73,-1.07,-1.14,11.73,-1.07,0,0,0,0,0,0,27.37,0.86,-10.01,-0.86,0.01,0.02,0,44.7,25.65,-57.9
397,26.18,998.62,122.5,3.5,-5.37,-94.5,-1.27,11.73,-0.94,-1.27,11.73,-0.94,-1.27,11.73,-0.94,0,0,0,0,0,0,27.61,1.01,-9.84,-0.68,0.02,-0.03,0,44.7,25.65,-57.9
445,26.19,998.62,122.51,3.44,-5.44,-94.44,-1.28,11.75,-0.82,-1.28,11.75,-0.82,-1.25,11.75,-0.9,0,0,0,0,0,0,27.71,0.88,-10.01,-0.66,0.01,0,0.02,41.85,24.15,-59.7
487,26.19,998.63,122.43,3.37,-5.44,-94.44,-1.32,11.73,-0.72,-1.32,11.73,-0.72,-1.32,11.73,-0.72,0,0,0,0,0,0,27.57,0.99,-9.96,-0.53,0,0.01,0.03,41.85,24.15,-59.7
531,26.19,998.63,122.42,3.31,-5.37,-94.37,-1.07,11.76,-0.71,-1.07,11.76,-0.71,-1.07,11.76,-0.71,0,0,0,0,0,0,27.71,0.69,-9.97,-0.51,-0.01,-0.02,0.03,41.55,21.3,-55.95
575,26.19,998.63,122.42,3.19,-5.31,-94.44,-1.03,11.73,-0.89,-1.03,11.73,-0.89,-0.99,11.75,-0.95,0,0,0,0,0,0,27.57,0.66,-9.97,-0.77,-0.02,-0.01,0.02,41.55,21.3,-55.95
617,26.19,998.63,122.46,3.12,-5.25,-94.44,-0.77,11.74,-1.05,-0.77,11.74,-1.05,-0.77,11.74,-1.05,0,0,0,0,0,0,27.71,0.58,-9.98,-0.67,-0.01,0.07,0.01,43.65,16.35,-56.25
667,26.19,998.62,122.49,3.19,-5.19,-94.44,-0.9,11.74,-1.18,-0.9,11.74,-1.18,-0.9,11.74,-1.18,0,0,0,0,0,0,27.71,0.59,-9.97,-1.02,-0.01,0.03,0,43.65,16.35,-56.25
709,26.19,998.63,122.45,3.25,-5.19,-94.5,-1.01,11.76,-0.99,-1.01,11.76,-0.99,-1.01,11.76,-0.99,0,0,0,0,0,0,27.76,0.78,-10.01,-0.75,0,0.02,0,43.65,16.35,-56.25
752,26.19,998.62,122.5,3.25,-5.19,-94.5,-1.12,11.73,-1.13,-1.12,11.73,-1.13,-1.12,11.73,-1.13,0,0,0,0,0,0,27.52,0.75,-9.95,-0.92,0,0,0,45.9,13.95,-59.25
797,26.19,998.62,122.56,3.25,-5.19,-94.5,-1.04,11.76,-0.89,-1.07,11.75,-0.78,-1.07,11.75,-0.78,0,0,0,0,0,0,27.71,0.89,-10.01,-0.79,0.01,-0.01,0,45.9,13.95,-59.25
847,26.19,998.62,122.56,3.25,-5.19,-94.5,-1.15,11.72,-0.86,-1.17,11.72,-0.8,-1.17,11.72,-0.8,0,0,0,0,0,0,27.57,0.87,-10,-0.62,0,0,0.01,46.8,17.4,-60.45
889,26.19,998.6,122.65,3.25,-5.19,-94.44,-1.1,11.74,-0.85,-1.1,11.74,-0.85,-1.1,11.74,-0.85,0,0,0,0,0,0,27.52,0.76,-9.98,-0.69,-0.01,0,0.01,46.8,17.4,-60.45
929,26.19,998.61,122.63,3.25,-5.19,-94.44,-1.14,11.73,-0.8,-1.14,11.73,-0.8,-1.14,11.73,-0.8,0,0,0,0,0,0,27.76,0.84,-10,-0.52,-0.01,0,0.01,46.2,15.15,-59.4
977,26.19,998.62,122.55,3.25,-5.19,-94.44,-1.05,11.73,-0.92,-1.05,11.73,-0.92,-1.05,11.74,-0.96,0,0,0,0,0,0,27.57,0.77,-10.01,-0.77,-0.02,0,0.01,46.2,15.15,-59.4
1019,26.19,998.62,122.54,3.25,-5.19,-94.44,-1.11,11.75,-0.95,-1.11,11.75,-0.95,-1.11,11.75,-0.95,0,0,0,0,0,0,27.71,0.79,-9.99,-0.82,-0.01,0,0,45.45,15.15,-60.15
1068,26.19,998.62,122.49,3.25,-5.19,-94.44,-1.01,11.73,-1.09,-1.08,11.73,-1.06,-1.08,11.73,-1.06,0,0,0,0,0,0,27.61,0.76,-9.99,-0.83,0,0,0,45.45,15.15,-60.15
1109,26.19,998.63,122.47,3.25,-5.19,-94.5,-1.11,11.73,-1.05,-1.11,11.73,-1.05,-1.11,11.73,-1.05,0,0,0,0,0,0,27.57,0.71,-9.95,-0.84,0,0,0,45.45,15.15,-60.15
1151,26.19,998.63,122.47,3.25,-5.19,-94.5,-1.07,11.76,-0.96,-1.07,11.76,-0.96,-1.07,11.76,-0.96,0,0,0,0,0,0,27.52,0.75,-9.99,-0.7,0.01,0.01,0.01,46.5,13.35,-59.1
1200,26.19,998.63,122.43,3.25,-5.19,-94.5,-1.05,11.75,-0.9,-1.05,11.75,-0.9,-1.05,11.75,-0.9,0,0,0,0,0,0,27.52,0.81,-9.98,-0.71,0,0,0,46.5,13.35,-59.1
1242,26.19,998.62,122.5,3.25,-5.19,-94.5,-1.07,11.76,-0.85,-1.07,11.76,-0.85,-1.07,11.76,-0.85,0,0,0,0,0,0,27.71,0.73,-9.93,-0.63,0,-0.01,0,45.75,13.65,-60.45
1290,26.19,998.62,122.5,3.25,-5.19,-94.5,-1.11,11.72,-0.82,-1.11,11.72,-0.82,-1.11,11.72,-0.82,0,0,0,0,0,0,27.57,0.81,-9.98,-0.58,-0.01,-0.01,0,45.75,13.65,-60.45
1332,26.19,998.62,122.56,3.25,-5.19,-94.44,-1.09,11.74,-0.85,-1.09,11.74,-0.85,-1.09,11.74,-0.85,0,0,0,0,0,0,27.61,0.78,-9.95,-0.74,-0.01,-0.01,0,44.55,9.45,-59.85
1377,26.19,998.61,122.63,3.25,-5.19,-94.5,-1.15,11.74,-0.94,-1.15,11.74,-0.94,-1.15,11.74,-0.94,0,0,0,0,0,0,27.71,0.85,-9.98,-0.71,-0.01,-0.01,0,44.55,9.45,-59.85
1420,26.19,998.61,122.64,3.25,-5.19,-94.5,-1.05,11.76,-1.01,-1.05,11.76,-1.01,-1.05,11.76,-1.01,0,0,0,0,0,0,27.61,0.7,-9.96,-0.8,-0.01,0,0.01,33,-3.15,-55.35
1461,26.19,998.61,122.59,3.25,-5.19,-94.5,-0.95,11.74,-1.07,-0.95,11.74,-1.07,-0.95,11.74,-1.07,0,0,0,0,0,0,27.61,0.81,-10.01,-0.7,0,0,0,33,-3.15,-55.35
1510,26.2,998.61,122.59,3.25,-5.19,-94.5,-1.12,11.71,-0.77,-1.12,11.71,-0.77,-1.12,11.71,-0.77,0,0,0,0,0,0,27.57,0.71,-9.91,-0.53,0,-0.01,0.01,33,-3.15,-55.35
1551,26.2,998.61,122.59,3.19,-5.19,-94.5,-1.13,11.72,-1.01,-1.13,11.72,-1.01,-1.13,11.72,-1.01,0,0,0,0,0,0,27.61,0.78,-9.97,-0.88,-0.01,0.01,0,30.75,-7.95,-41.1
1599,26.2,998.61,122.59,3.19,-5.19,-94.5,-1.02,11.7,-0.82,-1.02,11.7,-0.82,-0.9,11.75,-0.77,0,0,0,0,0,0,27.57,0.84,-9.96,-0.84,-0.01,-0.01,0.01,30.75,-7.95,-41.1
1640,26.2,998.61,122.63,3.19,-5.19,-94.5,-1.17,11.76,-1.05,-1.17,11.76,-1.05,-1.17,11.76,-1.05,0,0,0,0,0,0,27.52,0.76,-10.01,-0.73,-0.01,0.01,0.01,32.25,-18,-25.95
1682,26.2,998.61,122.61,3.19,-5.19,-94.5,-1.07,11.75,-0.9,-1.07,11.75,-0.9,-1.07,11.75,-0.9,0,0,0,0,0,0,27.85,0.67,-9.96,-0.8,-0.01,-0.01,0.01,32.25,-18,-25.95
1731,26.2,998.61,122.59,3.19,-5.19,-94.5,-1.09,11.73,-0.96,-1.09,11.73,-0.96,-1.09,11.73,-0.96,0,0,0,0,0,0,27.61,0.76,-9.94,-0.74,0,0.01,0.01,32.4,-23.1,-22.95
1774,26.2,998.61,122.59,3.19,-5.19,-94.5,-1.06,11.72,-1,-1.06,11.72,-1,-1.06,11.72,-1,0,0,0,0,0,0,27.71,0.78,-9.98,-0.76,0,0,0,32.4,-23.1,-22.95
1819,26.2,998.61,122.61,3.19,-5.19,-94.5,-1.11,11.76,-0.9,-1.11,11.76,-0.9,-1.13,11.72,-0.89,0,0,0,0,0,0,27.85,0.8,-9.97,-0.66,0,-0.01,0.01,32.4,-23.1,-22.95
1862,26.2,998.61,122.6,3.19,-5.19,-94.5,-1.04,11.74,-0.94,-1.04,11.74,-0.94,-1.04,11.74,-0.94,0,0,0,0,0,0,27.71,0.75,-9.99,-0.75,0,0,0,35.55,-28.05,-26.25
1911,26.2,998.61,122.58,3.19,-5.19,-94.5,-1.11,11.72,-0.9,-1.11,11.72,-0.9,-1.11,11.72,-0.9,0,0,0,0,0,0,27.57,0.81,-9.95,-0.68,-0.01,-0.01,0,35.55,-28.05,-26.25
1953,26.2,998.62,122.52,3.19,-5.19,-94.5,-1.08,11.75,-0.94,-1.08,11.75,-0.94,-1.08,11.75,-0.94,0,0,0,0,0,0,27.37,0.77,-10.02,-0.76,-0.01,0,0.01,37.65,-28.05,-29.85
1994,26.2,998.61,122.59,3.19,-5.19,-94.5,-1.12,11.74,-0.96,-1.12,11.74,-0.96,-1.12,11.74,-0.96,0,0,0,0,0,0,27.57,0.79,-9.96,-0.73,-0.01,-0.01,0.01,37.65,-28.05,-29.85
2040,26.2,998.61,122.64,3.19,-5.19,-94.5,-1.06,11.73,-0.97,-1.06,11.73,-0.97,-1.07,11.73,-0.98,0,0,0,0,0,0,27.57,0.72,-9.96,-0.76,0,0,0,39.3,-27.9,-31.05
2082,26.2,998.61,122.64,3.19,-5.19,-94.5,-1.08,11.75,-0.95,-1.08,11.75,-0.95,-1.08,11.75,-0.95,0,0,0,0,0,0,27.61,0.78,-9.97,-0.8,-0.01,0,0,39.3,-27.9,-31.05
2132,26.2,998.59,122.77,3.19,-5.19,-94.5,-1.08,11.75,-0.98,-1.09,11.73,-0.96,-1.09,11.73,-0.96,0,0,0,0,0,0,27.76,0.84,-9.97,-0.65,0,0,0,42.45,-28.95,-31.05
2173,26.2,998.59,122.77,3.19,-5.19,-94.5,-1.09,11.74,-0.94,-1.09,11.74,-0.94,-1.09,11.74,-0.94,0,0,0,0,0,0,27.71,0.76,-9.99,-0.72,0,0.01,0,42.45,-28.95,-31.05
2220,26.2,998.6,122.68,3.19,-5.19,-94.5,-1.12,11.75,-0.92,-1.12,11.75,-0.92,-1.11,11.74,-0.9,0,0,0,0,0,0,27.57,0.77,-9.96,-0.73,0,0,0.01,42.45,-28.95,-31.05
2262,26.2,998.61,122.65,3.19,-5.19,-94.5,-1.1,11.73,-0.97,-1.1,11.73,-0.97,-1.1,11.73,-0.97,0,0,0,0,0,0,27.61,0.78,-9.99,-0.79,-0.01,0,0,43.8,-31.05,-31.2
2304,26.2,998.61,122.61,3.19,-5.19,-94.5,-1.11,11.72,-0.9,-1.11,11.72,-0.9,-1.11,11.72,-0.9,0,0,0,0,0,0,27.52,0.76,-9.99,-0.73,0,0,0.01,43.8,-31.05,-31.2
2353,26.2,998.61,122.6,3.19,-5.19,-94.5,-1.11,11.75,-0.98,-1.11,11.75,-0.98,-1.11,11.75,-0.98,0,0,0,0,0,0,27.85,0.75,-9.97,-0.74,0,0,0,42.45,-29.7,-31.35
2395,26.2,998.6,122.67,3.19,-5.19,-94.5,-1.09,11.74,-0.96,-1.09,11.74,-0.96,-1.09,11.74,-0.96,0,0,0,0,0,0,27.61,0.8,-9.97,-0.73,0,0,0,42.45,-29.7,-31.35
2437,26.2,998.6,122.68,3.19,-5.19,-94.5,-1.06,11.73,-0.96,-1.06,11.73,-0.96,-1.06,11.73,-0.96,0,0,0,0,0,0,27.85,0.78,-10.02,-0.77,0,0,0.01,43.35,-32.1,-29.85
2482,26.2,998.6,122.73,3.19,-5.19,-94.5,-1.09,11.76,-0.94,-1.09,11.76,-0.94,-1.07,11.74,-0.93,0,0,0,0,0,0,27.61,0.8,-9.99,-0.72,0,0,0.01,43.35,-32.1,-29.85
2523,26.2,998.6,122.72,3.19,-5.19,-94.5,-1.07,11.74,-0.94,-1.07,11.74,-0.94,-1.07,11.74,-0.94,0,0,0,0,0,0,27.76,0.76,-9.98,-0.74,0,0,0,43.35,-32.1,-29.85
2573,26.2,998.6,122.7,3.19,-5.19,-94.5,-1.09,11.73,-0.92,-1.09,11.73,-0.92,-1.09,11.73,-0.92,0,0,0,0,0,0,27.85,0.79,-9.97,-0.71,0,0,0.01,45.15,-33.3,-30.15
2614,26.2,998.61,122.64,3.19,-5.19,-94.5,-1.1,11.72,-0.92,-1.1,11.72,-0.92,-1.1,11.72,-0.92,0,0,0,0,0,0,27.61,0.79,-9.96,-0.75,0,0,0,45.15,-33.3,-30.15
2665,26.2,998.61,122.59,3.19,-5.19,-94.5,-1.1,11.76,-0.92,-1.1,11.76,-0.92,-1.07,11.75,-0.96,0,0,0,0,0,0,27.57,0.8,-9.97,-0.75,0,0,0.01,43.95,-32.7,-30.75
2706,26.2,998.61,122.58,3.19,-5.19,-94.5,-1.11,11.74,-0.91,-1.11,11.74,-0.91,-1.11,11.74,-0.91,0,0,0,0,0,0,27.57,0.76,-9.97,-0.77,-0.01,0,0.01,43.95,-32.7,-30.75
2754,26.2,998.62,122.53,3.19,-5.19,-94.5,-1.08,11.75,-0.99,-1.08,11.75,-0.99,-1.08,11.75,-0.99,0,0,0,0,0,0,27.57,0.79,-9.99,-0.73,0,0,0,42.3,-34.05,-31.95
2795,26.2,998.61,122.58,3.19,-5.19,-94.5,-1.07,11.73,-0.96,-1.07,11.73,-0.96,-1.07,11.73,-0.96,0,0,0,0,0,0,27.76,0.72,-9.97,-0.76,-0.01,0,0.01,42.3,-34.05,-31.95
2837,26.19,998.6,122.65,3.19,-5.19,-94.5,-1.09,11.72,-0.94,-1.09,11.72,-0.94,-1.09,11.72,-0.94,0,0,0,0,0,0,27.9,0.73,-9.96,-0.71,0,0.01,0.01,41.25,-33.3,-34.05
2883,26.2,998.61,122.64,3.19,-5.19,-94.5,-1.08,11.75,-0.92,-1.08,11.75,-0.92,-1.08,11.75,-0.93,0,0,0,0,0,0,27.42,0.74,-9.96,-0.76,-0.01,0,0.01,41.25,-33.3,-34.05
2925,26.2,998.61,122.61,3.19,-5.19,-94.5,-1.11,11.74,-0.93,-1.11,11.74,-0.93,-1.11,11.74,-0.93,0,0,0,0,0,0,27.57,0.78,-9.96,-0.7,0,0,0,41.25,-33.3,-34.05
2975,26.2,998.61,122.61,3.19,-5.19,-94.5,-1.11,11.73,-0.95,-1.11,11.73,-0.95,-1.11,11.73,-0.95,0,0,0,0,0,0,27.57,0.76,-9.98,-0.75,-0.01,0,0.01,43.2,-32.4,-31.8
3024,26.2,998.61,122.63,3.19,-5.19,-94.5,-1.12,11.74,-0.95,-1.1,11.74,-0.93,-1.1,11.74,-0.93,0,0,0,0,0,0,27.57,0.75,-10,-0.76,-0.01,0,0,43.2,-32.4,-31.8
3066,26.19,998.6,122.72,3.19,-5.19,-94.5,-1.08,11.75,-0.97,-1.08,11.75,-0.97,-1.08,11.75,-0.97,0,0,0,0,0,0,27.52,0.75,-9.91,-0.74,-0.01,0,0.01,42,-32.85,-33
3110,26.19,998.61,122.63,3.19,-5.19,-94.5,-1.06,11.76,-0.94,-1.06,11.76,-0.94,-1.06,11.76,-0.94,0,0,0,0,0,0,27.76,0.76,-9.95,-0.77,-0.01,0,0,42,-32.85,-33
3154,26.19,998.61,122.63,3.19,-5.19,-94.5,-1.06,11.74,-0.95,-1.06,11.74,-0.95,-1.06,11.74,-0.96,0,0,0,0,0,0,27.85,0.76,-9.95,-0.72,0,0,0.01,42,-32.85,-33
3204,26.2,998.61,122.62,3.19,-5.19,-94.5,-1.07,11.73,-0.94,-1.07,11.73,-0.94,-1.07,11.73,-0.94,0,0,0,0,0,0,27.71,0.73,-9.98,-0.72,0,0,0.01,42,-32.85,-33
3246,26.19,998.61,122.61,3.19,-5.19,-94.5,-1.1,11.73,-0.94,-1.1,11.73,-0.94,-1.1,11.73,-0.94,0,0,0,0,0,0,27.76,0.79,-9.94,-0.71,0,0,0,42,-32.85,-33
3290,26.19,998.6,122.68,3.19,-5.19,-94.5,-1.12,11.75,-0.9,-1.12,11.75,-0.9,-1.12,11.75,-0.9,0,0,0,0,0,0,27.61,0.78,-9.96,-0.75,-0.01,0,0.01,42,-32.85,-33
3334,26.2,998.6,122.66,3.19,-5.19,-94.5,-1.1,11.76,-0.96,-1.1,11.76,-0.96,-1.12,11.73,-0.94,0,0,0,0,0,0,27.61,0.76,-9.91,-0.75,0,-0.01,0,42,-32.85,-33
3376,26.2,998.6,122.67,3.19,-5.19,-94.5,-1.1,11.74,-0.94,-1.1,11.74,-0.94,-1.1,11.74,-0.94,0,0,0,0,0,0,27.52,0.78,-9.97,-0.75,0,0,0.01,42,-32.85,-33
3426,26.2,998.6,122.65,3.19,-5.19,-94.5,-1.04,11.75,-0.94,-1.04,11.75,-0.94,-1.04,11.75,-0.94,0,0,0,0,0,0,27.61,0.74,-9.96,-0.72,-0.01,0,0,42,-32.85,-33
3468,26.19,998.6,122.66,3.19,-5.19,-94.5,-1.06,11.73,-0.96,-1.06,11.73,-0.96,-1.06,11.73,-0.96,0,0,0,0,0,0,27.71,0.69,-9.9,-0.76,-0.01,0,0,42,-32.85,-33
3512,26.2,998.61,122.65,3.19,-5.19,-94.5,-1.07,11.75,-0.96,-1.07,11.75,-0.96,-1.07,11.75,-0.96,0,0,0,0,0,0,27.76,0.78,-9.95,-0.73,-0.01,0,0,42,-32.85,-33
3556,26.2,998.6,122.66,3.19,-5.19,-94.5,-1.07,11.74,-0.91,-1.1,11.73,-0.92,-1.1,11.73,-0.92,0,0,0,0,0,0,27.71,0.79,-10,-0.79,0,0,0.01,42,-32.85,-33
3606,26.2,998.6,122.65,3.19,-5.19,-94.5,-1.11,11.73,-0.93,-1.1,11.73,-0.95,-1.1,11.73,-0.95,0,0,0,0,0,0,27.37,0.8,-9.95,-0.75,0,0,0,42,-32.85,-33
3648,26.2,998.6,122.65,3.19,-5.19,-94.5,-1.1,11.73,-0.91,-1.1,11.73,-0.91,-1.1,11.73,-0.91,0,0,0,0,0,0,27.52,0.79,-9.93,-0.74,-0.01,0,0,42,-32.85,-33
3688,26.19,998.6,122.67,3.19,-5.19,-94.5,-1.11,11.73,-0.94,-1.11,11.73,-0.94,-1.11,11.73,-0.94,0,0,0,0,0,0,27.61,0.78,-9.95,-0.73,-0.01,0,0.01,42,-32.85,-33
3736,26.19,998.6,122.7,3.19,-5.19,-94.5,-1.09,11.75,-0.92,-1.09,11.75,-0.92,-1.08,11.74,-0.95,0,0,0,0,0,0,27.71,0.75,-9.98,-0.73,0,0,0.01,42,-32.85,-33
3778,26.2,998.61,122.64,3.19,-5.19,-94.5,-1.07,11.73,-0.98,-1.07,11.73,-0.98,-1.07,11.73,-0.98,0,0,0,0,0,0,27.61,0.78,-9.98,-0.79,0,0,0,42,-32.85,-33
3827,26.2,998.62,122.53,3.19,-5.19,-94.5,-1.07,11.75,-0.95,-1.07,11.75,-0.95,-1.07,11.75,-0.95,0,0,0,0,0,0,27.52,0.76,-9.98,-0.79,-0.01,0,0.01,42,-32.85,-33
3868,26.2,998.62,122.53,3.19,-5.19,-94.5,-1.07,11.74,-0.98,-1.07,11.74,-0.98,-1.07,11.74,-0.98,0,0,0,0,0,0,27.61,0.79,-9.97,-0.75,-0.01,0,0,42,-32.85,-33
3916,26.2,998.62,122.49,3.19,-5.19,-94.5,-1.08,11.74,-0.94,-1.08,11.74,-0.94,-1.07,11.73,-0.94,0,0,0,0,0,0,27.57,0.75,-9.99,-0.73,0,0,0,42,-32.85,-33
3958,26.2,998.62,122.52,3.19,-5.19,-94.5,-1.11,11.74,-0.93,-1.11,11.74,-0.93,-1.11,11.74,-0.93,0,0,0,0,0,0,27.57,0.79,-9.94,-0.7,0,0.01,0,43.05,-32.85,-31.65
3999,26.2,998.62,122.5,3.19,-5.19,-94.5,-1.12,11.74,-0.93,-1.12,11.74,-0.93,-1.12,11.74,-0.93,0,0,0,0,0,0,27.71,0.81,-9.94,-0.76,-0.01,0,0,43.05,-32.85,-31.65
4048,26.2,998.62,122.54,3.19,-5.19,-94.5,-1.1,11.75,-0.92,-1.1,11.75,-0.92,-1.1,11.75,-0.92,0,0,0,0,0,0,27.57,0.82,-9.95,-0.7,0,-0.01,0,43.2,-32.7,-31.35
4090,26.2,998.61,122.6,3.19,-5.19,-94.5,-1.1,11.74,-0.92,-1.1,11.74,-0.92,-1.1,11.74,-0.92,0,0,0,0,0,0,27.52,0.77,-9.94,-0.76,0,0,0.01,43.2,-32.7,-31.35
4138,26.2,998.61,122.6,3.19,-5.19,-94.5,-1.09,11.74,-0.93,-1.09,11.74,-0.93,-1.09,11.74,-0.93,0,0,0,0,0,0,27.61,0.74,-9.99,-0.72,0,0,0,41.85,-33.15,-31.8
4180,26.2,998.61,122.59,3.19,-5.19,-94.5,-1.06,11.74,-0.96,-1.06,11.74,-0.96,-1.06,11.74,-0.96,0,0,0,0,0,0,27.61,0.74,-9.96,-0.79,0,0,0.01,41.85,-33.15,-31.8
4220,26.2,998.61,122.61,3.19,-5.19,-94.5,-1.07,11.73,-0.97,-1.07,11.73,-0.97,-1.07,11.73,-0.97,0,0,0,0,0,0,27.57,0.77,-9.98,-0.71,0,0,0,41.85,-33.15,-31.8
4269,26.2,998.61,122.57,3.19,-5.19,-94.5,-1.1,11.74,-0.98,-1.1,11.74,-0.98,-1.1,11.74,-0.98,0,0,0,0,0,0,27.61,0.76,-9.99,-0.74,0,0,0,41.25,-31.05,-32.25
4310,26.2,998.61,122.6,3.19,-5.19,-94.5,-1.11,11.72,-0.94,-1.11,11.72,-0.94,-1.11,11.72,-0.94,0,0,0,0,0,0,27.57,0.8,-9.97,-0.74,-0.01,0,0,41.25,-31.05,-32.25
4358,26.2,998.62,122.55,3.19,-5.19,-94.5,-1.13,11.72,-0.94,-1.13,11.72,-0.94,-1.11,11.75,-0.92,0,0,0,0,0,0,27.61,0.8,-9.96,-0.77,0,0,0,40.5,-33.3,-32.25
4399,26.2,998.62,122.54,3.19,-5.19,-94.5,-1.1,11.73,-0.93,-1.1,11.73,-0.93,-1.1,11.73,-0.93,0,0,0,0,0,0,27.76,0.8,-9.96,-0.72,0,0,0,40.5,-33.3,-32.25
4449,26.2,998.62,122.56,3.19,-5.19,-94.5,-1.09,11.74,-0.93,-1.08,11.73,-0.9,-1.08,11.73,-0.9,0,0,0,0,0,0,27.61,0.78,-10,-0.7,-0.01,-0.01,0.01,41.55,-33.3,-32.7
4490,26.2,998.62,122.5,3.19,-5.19,-94.5,-1.1,11.73,-0.94,-1.1,11.73,-0.94,-1.1,11.73,-0.94,0,0,0,0,0,0,27.95,0.75,-9.98,-0.79,0,0,0.01,41.55,-33.3,-32.7
4533,26.2,998.62,122.53,3.19,-5.19,-94.5,-1.09,11.72,-0.97,-1.09,11.72,-0.97,-1.09,11.72,-0.97,0,0,0,0,0,0,27.61,-0.12,-10.03,-1.12,-0.01,-0.01,0.01,41.55,-33.3,-32.7
4579,26.2,998.62,122.52,3.12,-5.19,-94.5,-0.73,11.68,-1.01,-0.73,11.68,-1.01,-1.58,11.84,-0.72,0,0,0,0,0,0,27.52,1.46,-9.84,-0.07,0,-0.01,0,43.05,-34.05,-33.75
4621,26.2,998.62,122.55,3.12,-5.19,-94.5,-0.67,11.62,-1.31,-0.67,11.62,-1.31,-0.67,11.62,-1.31,0,0,0,0,0,0,27.61,0.36,-9.92,-0.78,-0.03,-0.33,-0.01,43.05,-34.05,-33.75
4670,26.2,998.62,122.55,2.25,-5.19,-94.69,-1.12,10.67,-1.18,-1.12,10.67,-1.18,-1.12,10.67,-1.18,0,0,0,0,0,0,27.76,1.04,-9.45,-0.79,-0.07,-0.75,0.05,42,-34.8,-32.7
4712,26.2,998.62,122.55,0.25,-4.87,-95,-1.7,12.05,-1.07,-1.7,12.05,-1.07,-1.7,12.05,-1.07,0,0,0,0,0,0,27.71,0.54,-10.64,0,0,-0.52,0.11,42,-34.8,-32.7
4754,26.2,998.62,122.55,358.56,-4.56,-95.19,0.69,12.03,-0.59,0.69,12.03,-0.59,0.69,12.03,-0.59,0,0,0,0,0,0,27.71,1.34,-10.25,-1.53,-0.03,-0.58,0.04,43.05,-34.8,-31.65
4796,26.2,998.63,122.47,357,-4.37,-95.31,-0.9,11.55,-0.47,-0.9,11.55,-0.47,-0.9,11.55,-0.47,0,0,0,0,0,0,27.57,-0.47,-9.58,-0.23,-0.02,-0.93,0,43.05,-34.8,-31.65
4840,26.2,998.62,122.54,354.81,-4.19,-95.5,-1.34,12.13,-0.97,-1.34,12.13,-0.97,-1.13,12.16,-1.14,0,0,0,0,0,0,27.76,1.02,-10.37,-1.37,-0.02,-0.42,0.02,43.95,-33.9,-30
4890,26.2,998.62,122.53,353.19,-4,-95.69,-1.28,11.88,-1.19,-0.46,11.45,-0.78,-0.46,11.45,-0.78,0,0,0,0,0,0,27.57,-0.14,-9.51,-0.46,0,-0.74,-0.01,43.95,-33.9,-30
4931,26.2,998.61,122.58,351.81,-3.87,-95.75,-0.93,11.56,-1.01,-0.93,11.56,-1.01,-0.93,11.56,-1.01,0,0,0,0,0,0,27.57,0.31,-9.67,-1.06,0,-1.17,0.01,43.95,-33.9,-30
4979,26.2,998.61,122.58,348.31,-3.56,-96,-1.22,11.82,-1.49,-1.22,11.82,-1.49,-1.22,11.82,-1.49,0,0,0,0,0,0,27.9,0.75,-10.26,-0.88,-0.02,-0.87,0.03,45.45,-35.4,-28.65
5021,26.2,998.62,122.56,346,-3.31,-96.19,-1.02,11.91,-1.09,-1.02,11.91,-1.09,-1.02,11.91,-1.09,0,0,0,0,0,0,27.61,0.34,-9.94,-1.12,0.01,-0.7,0.02,45.45,-35.4,-28.65
5063,26.2,998.61,122.59,343.62,-3.06,-96.31,-0.82,11.78,-1.6,-0.82,11.78,-1.6,-0.82,11.78,-1.6,0,0,0,0,0,0,27.76,0.24,-9.96,-1.25,0.01,-0.76,0.03,47.25,-34.65,-27.6
5110,26.2,998.61,122.61,341.69,-2.81,-96.37,-0.67,11.87,-1.3,-0.67,11.87,-1.3,-0.51,11.65,-1.23,0,0,0,0,0,0,27.37,0.03,-9.81,-1.01,0.03,-0.85,0,47.25,-34.65,-27.6
5152,26.2,998.62,122.56,339.75,-2.62,-96.44,-0.02,11.38,-1.52,-0.02,11.38,-1.52,-0.02,11.38,-1.52,0,0,0,0,0,0,27.85,0.08,-9.8,-1.27,0.04,-1.08,-0.01,48.45,-34.8,-23.85
5194,26.2,998.62,122.55,336.37,-2.31,-96.5,-0.43,11.56,-1.26,-0.43,11.56,-1.26,-0.43,11.56,-1.26,0,0,0,0,0,0,27.9,0.61,-10.4,-1.34,0.05,-1.12,-0.02,48.45,-34.8,-23.85
5238,26.2,998.62,122.55,333.56,-2.12,-96.5,-0.46,11.65,-1.34,-0.46,11.65,-1.34,-0.46,11.65,-1.34,0,0,0,0,0,0,27.57,0.58,-10.41,-1.5,0.04,-1.01,-0.06,48.45,-34.8,-23.85
5288,26.2,998.61,122.58,330.25,-2,-96.44,-0.63,11.83,-1.16,-0.63,11.83,-1.16,-0.63,11.83,-1.16,0,0,0,0,0,0,27.52,0.1,-9.9,-0.67,-0.01,-1.08,-0.06,48,-34.95,-22.95
5332,26.2,998.61,122.59,327.75,-1.87,-96.56,-0.18,11.05,-0.78,-0.09,10.91,-1,-0.09,10.91,-1,0,0,0,0,0,0,27.52,1.12,-10.57,-1.18,-0.04,-1.86,-0.02,48,-34.95,-22.95
5373,26.2,998.62,122.54,323.5,-1.5,-96.75,-0.99,11.79,-1.92,-0.99,11.79,-1.92,-0.99,11.79,-1.92,0,0,0,0,0,0,27.52,-0.29,-9.87,-0.51,-0.02,-1.64,0.04,49.35,-34.65,-20.4
5421,26.2,998.62,122.49,318.19,-0.81,-96.94,-0.56,11.7,-0.91,-0.56,11.7,-0.91,-0.77,12.1,-1.01,0,0,0,0,0,0,27.61,0.54,-10.36,-0.67,-0.01,-1.4,0.04,49.35,-34.65,-20.4
5462,26.2,998.62,122.56,314.25,-0.31,-97,-0.97,12.44,-1.31,-0.75,12.21,-1.68,-0.75,12.21,-1.68,0,0,0,0,0,0,27.85,0.48,-10.39,-1.27,0,-0.81,0.03,48.6,-35.4,-17.55
5510,26.2,998.63,122.46,311.25,0,-97,-0.53,11.69,-1.54,-0.53,11.69,-1.54,-0.53,11.69,-1.54,0,0,0,0,0,0,27.85,-0.34,-9.73,-1.49,0,-1.04,0,48.6,-35.4,-17.55
5551,26.2,998.62,122.48,308.87,0.25,-97,-0.21,11.59,-1.33,-0.21,11.59,-1.33,-0.31,11.61,-1.4,0,0,0,0,0,0,27.37,0.15,-9.8,-1,-0.04,-1.17,0,48.45,-34.35,-14.55
5598,26.2,998.62,122.52,304.87,0.62,-97.12,-0.81,12.2,-2.88,-0.81,12.2,-2.88,-0.81,12.2,-2.88,0,0,0,0,0,0,27.61,-0.73,-10.26,3.21,-0.02,-0.92,0.06,48.45,-34.35,-14.55
5642,26.2,998.62,122.49,301.62,1.12,-97.06,-0.89,12.27,-2.26,-0.89,12.27,-2.26,-0.2,12.38,-1.01,0,0,0,0,0,0,27.37,-0.35,-9.7,0.3,0.04,-0.64,0.03,48.3,-33.45,-12
5684,26.2,998.63,122.47,299.81,1.37,-97,0.1,11.87,-1.29,0.1,11.87,-1.29,0.1,11.87,-1.29,0,0,0,0,0,0,27.71,-0.35,-9.85,-0.89,0,-0.44,-0.01,48.3,-33.45,-12
5733,26.2,998.62,122.51,298.44,1.5,-96.94,0,11.85,-1.05,0,11.85,-1.05,0,11.85,-1.05,0,0,0,0,0,0,27.76,0.18,-9.96,-0.49,-0.02,0.17,0.01,48.3,-33.45,-12
5775,26.2,998.63,122.45,298.56,1.44,-96.94,0.03,11.71,-1.27,0.03,11.71,-1.27,0.03,11.71,-1.27,0,0,0,0,0,0,27.71,0.29,-9.99,-1.18,-0.03,0.11,0,48.15,-34.05,-11.85
5820,26.2,998.63,122.48,298.94,1.44,-97,-0.25,11.75,-1.29,-0.25,11.75,-1.29,-0.25,11.75,-1.29,0,0,0,0,0,0,27.85,-0.66,-9.96,-1.22,-0.02,0.02,0,48.15,-34.05,-11.85
5863,26.2,998.62,122.49,299.12,1.37,-97.06,-0.22,11.72,-1.66,-0.56,11.74,-1.69,-0.56,11.74,-1.69,0,0,0,0,0,0,27.61,0.07,-9.97,-1.77,-0.02,-0.04,-0.01,48,-33.9,-13.35
5912,26.2,998.62,122.51,299.06,1.37,-97.12,-0.12,11.8,-1.5,-0.12,11.8,-1.5,-0.14,11.79,-1.38,0,0,0,0,0,0,28.04,0,-10,-0.94,0,-0.06,-0.01,48,-33.9,-13.35
5954,26.2,998.62,122.49,299,1.37,-97.12,-0.72,11.76,-1.41,-0.65,11.76,-1.52,-0.65,11.76,-1.52,0,0,0,0,0,0,27.76,-0.01,-9.96,-1.48,0,-0.08,0,47.7,-35.55,-12.45
5995,26.2,998.62,122.51,298.87,1.37,-97.12,-0.65,11.74,-1.16,-0.65,11.74,-1.16,-0.65,11.74,-1.16,0,0,0,0,0,0,27.76,0.28,-9.91,-1.06,0.01,-0.06,0.01,47.7,-35.55,-12.45
6043,26.2,998.62,122.53,298.62,1.37,-97.06,-0.22,11.81,-1.76,-0.22,11.81,-1.76,-0.08,11.74,-1.82,0,0,0,0,0,0,27.71,-0.19,-10.04,-1.52,0.03,-0.15,0.02,47.7,-34.05,-13.5
6085,26.2,998.61,122.59,298.25,1.44,-97,-0.12,11.73,-1.27,-0.12,11.73,-1.27,-0.12,11.73,-1.27,0,0,0,0,0,0,27.61,-0.37,-9.94,-0.82,0.04,-0.08,0.01,47.7,-34.05,-13.5
6134,26.2,998.61,122.57,297.94,1.44,-96.87,-0.27,11.74,-1.36,-0.26,11.76,-1.43,-0.26,11.76,-1.43,0,0,0,0,0,0,27.9,-0.06,-9.96,-1.3,0.02,-0.09,0.01,47.7,-34.05,-13.5
6176,26.2,998.61,122.61,297.81,1.44,-96.81,0.22,11.81,-1.43,0.22,11.81,-1.43,0.22,11.81,-1.43,0,0,0,0,0,0,27.57,-0.54,-10.11,-1.13,0.05,-0.09,-0.01,47.55,-33.9,-12.6
6224,26.2,998.61,122.59,297.5,1.44,-96.69,-0.47,11.71,-1.79,-0.47,11.71,-1.79,-0.42,11.62,-1.64,0,0,0,0,0,0,27.85,-0.07,-9.89,-1.59,0.05,0,-0.01,47.55,-33.9,-12.6
6265,26.2,998.61,122.58,297.44,1.44,-96.5,-0.34,11.82,-0.77,-0.34,11.82,-0.77,-0.34,11.82,-0.77,0,0,0,0,0,0,27.61,-0.59,-9.94,-1.05,0.04,-0.14,-0.01,48,-33.45,-10.5
6306,26.2,998.61,122.58,297.12,1.44,-96.37,0.03,11.71,-1.01,0.03,11.71,-1.01,0.03,11.71,-1.01,0,0,0,0,0,0,27.85,-0.1,-10.01,-1.01,0.01,-0.01,-0.01,48,-33.45,-10.5
6355,26.2,998.61,122.62,297.12,1.37,-96.31,0.18,11.81,-1.77,0.23,11.85,-1.76,0.23,11.85,-1.76,0,0,0,0,0,0,27.9,-0.46,-9.94,-1.38,0.04,-0.11,-0.03,47.1,-33.3,-11.1
6397,26.2,998.61,122.65,296.94,1.31,-96.19,-0.13,11.75,-1.07,-0.13,11.75,-1.07,-0.13,11.75,-1.07,0,0,0,0,0,0,27.61,-0.2,-10.02,-0.85,0.04,-0.05,-0.03,47.1,-33.3,-11.1
6441,26.2,998.61,122.65,296.87,1.25,-96.06,-0.07,11.74,-1.09,-0.07,11.74,-1.09,-0.07,11.74,-1.09,0,0,0,0,0,0,27.76,-0.14,-9.96,-0.99,0.02,-0.08,-0.04,47.1,-33.3,-11.1
6485,26.2,998.62,122.55,296.81,1.12,-96,-0.03,11.79,-1.31,-0.09,11.77,-1.16,-0.09,11.77,-1.16,0,0,0,0,0,0,27.61,-0.24,-10.02,-1.04,0.03,-0.08,-0.05,47.7,-33.3,-9.6
6535,26.2,998.61,122.62,296.81,0.94,-95.94,-0.07,11.77,-1.12,-0.13,11.76,-1.12,-0.13,11.76,-1.12,0,0,0,0,0,0,27.57,-0.17,-9.92,-1,0.02,-0.1,-0.06,47.7,-33.3,-9.6
6577,26.2,998.61,122.57,296.75,0.69,-95.81,-0.48,11.69,-1.15,-0.48,11.69,-1.15,-0.48,11.69,-1.15,0,0,0,0,0,0,27.52,0.25,-10.04,-0.96,0.02,-0.08,-0.04,47.1,-34.8,-10.05
6618,26.2,998.62,122.55,296.62,0.62,-95.75,-0.34,11.73,-1.17,-0.34,11.73,-1.17,-0.34,11.73,-1.17,0,0,0,0,0,0,27.85,-0.21,-10.01,-0.83,0.02,-0.07,-0.05,47.1,-34.8,-10.05
6662,26.2,998.62,122.51,296.56,0.5,-95.69,-0.27,11.79,-1.13,-0.27,11.79,-1.13,-0.27,11.79,-1.13,0,0,0,0,0,0,27.52,0.13,-10.03,-0.93,0.01,-0.12,-0.04,48,-33.45,-11.55
6702,26.2,998.62,122.53,296.5,0.31,-95.62,-0.88,11.7,-1.24,-0.88,11.7,-1.24,-0.88,11.7,-1.24,0,0,0,0,0,0,27.95,0.36,-9.98,-1.11,0.02,-0.04,-0.03,48,-33.45,-11.55
6750,26.2,998.62,122.56,296.44,0.19,-95.56,-0.48,11.75,-1.18,-0.48,11.75,-1.18,-0.48,11.75,-1.18,0,0,0,0,0,0,27.61,0.29,-9.98,-0.91,0.02,-0.09,-0.01,46.35,-34.35,-10.35
6792,26.2,998.61,122.62,296.44,0,-95.5,-0.62,11.73,-1.12,-0.62,11.73,-1.12,-0.62,11.73,-1.12,0,0,0,0,0,0,27.61,0.17,-9.97,-0.74,0.01,-0.02,0,46.35,-34.35,-10.35
6837,26.2,998.61,122.64,296.5,-0.06,-95.44,-0.32,11.77,-0.88,-0.49,11.75,-0.98,-0.49,11.75,-0.98,0,0,0,0,0,0,27.61,0.33,-10.02,-0.75,0,-0.05,0,46.35,-34.35,-10.35
6879,26.2,998.61,122.62,296.5,-0.13,-95.37,-0.69,11.76,-1,-0.69,11.76,-1,-0.69,11.76,-1,0,0,0,0,0,0,27.85,0.04,-10.07,-0.76,0,0.02,0.02,46.35,-35.1,-9.3
6922,26.2,998.62,122.54,296.5,-0.13,-95.37,-0.12,11.76,-0.98,-0.12,11.76,-0.98,-0.12,11.76,-0.98,0,0,0,0,0,0,27.61,-0.13,-9.97,-0.74,-0.01,0.01,0.01,46.35,-35.1,-9.3
6974,26.2,998.62,122.49,296.56,-0.13,-95.37,-0.49,11.76,-1.15,-0.49,11.76,-1.15,-0.49,11.76,-1.15,0,0,0,0,0,0,27.57,0.14,-9.96,-0.88,-0.02,0.09,0.03,47.1,-34.35,-9
7021,26.2,998.63,122.47,296.81,-0.19,-95.44,-0.48,11.75,-0.96,-0.48,11.75,-0.96,-0.48,11.75,-0.96,0,0,0,0,0,0,27.76,0.06,-9.86,-1.02,-0.05,0.14,0.04,47.1,-34.35,-9
7066,26.2,998.63,122.47,297.19,-0.19,-95.5,-0.56,11.81,-0.93,-0.56,11.81,-0.93,-0.56,11.81,-0.93,0,0,0,0,0,0,27.76,0.22,-10.06,-0.58,-0.05,0.23,0.04,47.1,-34.35,-9
7108,26.2,998.62,122.53,297.75,-0.25,-95.56,-0.33,11.75,-1.27,-0.33,11.75,-1.27,-0.33,11.75,-1.27,0,0,0,0,0,0,27.76,-0.11,-10.07,-0.48,-0.04,0.26,0.03,47.1,-34.35,-9
7149,26.2,998.61,122.58,298.37,-0.31,-95.69,-0.47,11.75,-0.71,-0.47,11.75,-0.71,-0.47,11.75,-0.71,0,0,0,0,0,0,27.61,0.01,-9.89,-1.1,-0.04,0.02,0.04,47.1,-34.35,-9
7199,26.2,998.61,122.59,298.44,-0.25,-95.75,-0.46,11.62,-1.02,-0.46,11.62,-1.02,-0.46,11.62,-1.02,0,0,0,0,0,0,27.57,0.13,-10.04,-0.75,-0.06,-0.15,0.04,47.1,-34.35,-9
7239,26.2,998.61,122.6,298,-0.19,-95.87,-0.3,11.63,-1.29,-0.3,11.63,-1.29,-0.3,11.63,-1.29,0,0,0,0,0,0,27.71,-0.03,-10.01,-0.72,-0.06,-0.04,0.05,47.1,-34.35,-9
7286,26.2,998.62,122.55,297.87,-0.19,-96,-0.33,11.78,-1.14,-0.33,11.78,-1.14,-0.33,11.78,-1.14,0,0,0,0,0,0,27.57,0.12,-10.19,-1.12,-0.06,0.08,0.06,47.1,-34.35,-9
7328,26.2,998.62,122.48,298,-0.06,-96.12,-0.48,11.65,-1.17,-0.48,11.65,-1.17,-0.48,11.65,-1.17,0,0,0,0,0,0,27.57,0.06,-9.92,-0.96,-0.08,0.1,0.07,47.1,-34.35,-9
7378,26.2,998.63,122.47,298.25,0,-96.31,-0.51,11.63,-1.33,-0.48,11.68,-1.29,-0.48,11.68,-1.29,0,0,0,0,0,0,27.61,-0.11,-9.97,-1.18,-0.09,0.17,0.09,47.1,-34.35,-9
7420,26.2,998.63,122.45,298.44,0,-96.5,-0.37,12.29,-1.33,-0.37,12.29,-1.33,-0.37,12.29,-1.33,0,0,0,0,0,0,27.57,0.38,-10.29,-0.25,-0.08,-0.01,0.08,47.1,-34.35,-9
7461,26.2,998.63,122.48,298.25,0.25,-96.69,1.32,11.6,-3.75,1.32,11.6,-3.75,1.32,11.6,-3.75,0,0,0,0,0,0,27.52,-1,-9.8,-1.65,-0.09,0.02,0.06,47.1,-34.35,-9
7503,26.2,998.62,122.52,298.12,0.37,-96.87,-0.23,11.91,-1.31,-0.23,11.91,-1.31,-0.23,11.91,-1.31,0,0,0,0,0,0,27.85,-0.67,-9.88,-1.34,-0.05,-0.03,0.02,47.1,-34.35,-9
7548,26.2,998.61,122.57,297.94,0.37,-97,1.28,11.67,-2.92,1.28,11.67,-2.92,0.97,11.64,-2.64,0,0,0,0,0,0,27.85,-1.23,-10.05,-2.28,0.01,-0.09,-0.02,47.1,-34.35,-9
7599,26.2,998.61,122.64,297.75,0.37,-96.94,0.02,11.42,-1.69,0.29,11.4,-1.69,0.29,11.4,-1.69,0,0,0,0,0,0,27.61,-0.8,-9.65,-1.7,0.07,-0.06,-0.06,47.1,-34.35,-9
7641,26.2,998.62,122.56,297.75,0.19,-96.75,-0.18,11.15,-1.52,-0.18,11.15,-1.52,-0.18,11.15,-1.52,0,0,0,0,0,0,27.85,0.34,-9.26,-1.07,0.06,-0.1,-0.05,47.1,-34.35,-9
7684,26.2,998.62,122.5,297.69,0.13,-96.62,-0.38,11.81,-1.1,-0.38,11.81,-1.1,-0.38,11.81,-1.1,0,0,0,0,0,0,27.61,-0.4,-10.07,-0.76,0.03,-0.08,-0.01,47.1,-34.35,-9
7729,26.2,998.62,122.54,297.56,0.06,-96.56,-0.88,11.55,-0.86,-1.01,11.77,-0.85,-1.01,11.77,-0.85,0,0,0,0,0,0,27.52,0.85,-10.53,-0.89,0,0.06,0,47.1,-34.35,-9
7771,26.2,998.62,122.53,297.69,0.06,-96.56,-0.54,11.78,-0.86,-0.54,11.78,-0.86,-0.54,11.78,-0.86,0,0,0,0,0,0,27.9,0.21,-10,-0.77,-0.01,0.04,0.01,47.1,-34.35,-9
7819,26.2,998.63,122.46,297.75,0.06,-96.56,-0.33,12.17,-1.12,-0.33,12.17,-1.12,-0.39,12.27,-1.16,0,0,0,0,0,0,27.52,0.01,-10.26,-0.86,-0.04,0.07,0.04,47.1,-34.35,-9
7859,26.2,998.63,122.41,297.87,0.13,-96.62,-0.32,12.06,-1.04,-0.33,11.93,-1.05,-0.33,11.93,-1.05,0,0,0,0,0,0,27.52,-0.11,-10.13,-0.98,-0.04,0.01,0.03,47.1,-34.35,-9
7904,26.2,998.63,122.44,297.81,0.19,-96.75,0.06,11.72,-1.75,0.06,11.72,-1.75,0.06,11.72,-1.75,0,0,0,0,0,0,27.57,-0.04,-9.8,-1.3,-0.05,-0.02,0.03,47.1,-34.35,-9
7948,26.2,998.64,122.37,297.75,0.19,-96.81,0.1,11.92,-1.65,0.1,11.92,-1.65,0.1,11.92,-1.65,0,0,0,0,0,0,27.61,-0.76,-10.68,-1.65,-0.03,0.02,0.01,47.1,-34.35,-9
7991,26.2,998.64,122.34,297.81,0.19,-96.87,0.03,11.69,-1.84,0.03,11.69,-1.84,0.03,11.69,-1.84,0,0,0,0,0,0,27.76,-0.22,-9.92,-1.55,0,0.06,-0.01,48,-34.2,-10.2
8041,26.2,998.64,122.33,297.94,0.19,-96.87,0.03,11.73,-1.65,0.03,11.73,-1.65,0.03,11.73,-1.65,0,0,0,0,0,0,27.61,-0.22,-9.96,-1.37,0.02,-0.04,-0.02,48,-34.2,-10.2
8083,26.2,998.64,122.36,298,0.06,-96.81,-0.29,11.76,-1.64,-0.29,11.76,-1.64,-0.29,11.76,-1.64,0,0,0,0,0,0,27.57,-0.15,-9.95,-1.26,0.02,0.05,-0.01,50.1,-34.2,-9.9
8127,26.2,998.63,122.42,298.19,0,-96.75,-0.45,11.71,-1.21,-0.45,11.71,-1.21,-0.45,11.71,-1.21,0,0,0,0,0,0,27.71,-0.08,-9.98,-1.06,0.03,-0.01,0,50.1,-34.2,-9.9
8169,26.2,998.64,122.39,298.25,0,-96.69,-0.23,11.73,-1.31,-0.23,11.73,-1.31,-0.23,11.73,-1.31,0,0,0,0,0,0,27.52,-0.09,-9.99,-0.9,0.01,0.02,0,49.95,-34.05,-10.05
8216,26.2,998.63,122.42,298.44,0,-96.62,-0.23,11.69,-0.99,-0.23,11.69,-0.99,-0.23,11.69,-0.99,0,0,0,0,0,0,27.57,-0.11,-9.97,-0.91,-0.01,-0.01,0.01,49.95,-34.05,-10.05
8260,26.2,998.63,122.45,298.5,-0.06,-96.56,-0.17,11.71,-1.18,-0.17,11.71,-1.18,-0.17,11.71,-1.18,0,0,0,0,0,0,27.85,-0.09,-10.05,-0.74,-0.02,0,0.01,48.3,-34.95,-12
8302,26.2,998.63,122.43,298.5,-0.06,-96.56,-0.13,11.72,-1.37,-0.13,11.72,-1.37,-0.13,11.72,-1.37,0,0,0,0,0,0,27.85,-0.17,-9.95,-1.3,-0.03,-0.09,0.01,48.3,-34.95,-12
8350,26.2,998.63,122.41,298.31,-0.06,-96.62,-0.32,11.74,-1.7,-0.32,11.74,-1.7,-0.32,11.74,-1.7,0,0,0,0,0,0,27.71,-0.14,-9.92,-1.64,-0.02,-0.12,0,48.3,-34.95,-12
8392,26.2,998.63,122.47,298.06,0,-96.69,-0.01,11.8,-1.63,-0.01,11.8,-1.63,-0.01,11.8,-1.63,0,0,0,0,0,0,27.37,-0.17,-9.97,-1.62,0,0.15,0.01,47.55,-37.2,-11.25
8442,26.2,998.62,122.53,298.31,-0.06,-96.69,-0.8,11.79,-1.87,0.11,11.74,-1.27,0.11,11.74,-1.27,0,0,0,0,0,0,27.61,-0.74,-9.9,-1.2,0.03,-0.01,0.01,47.55,-37.2,-11.25
8483,26.2,998.63,122.48,298.19,0,-96.56,0.19,11.76,-1.57,0.19,11.76,-1.57,0.19,11.76,-1.57,0,0,0,0,0,0,27.61,0.13,-10.01,-1.16,0.03,0.02,0.01,47.4,-36.3,-12.9
8534,26.2,998.62,122.54,298.19,0,-96.5,-0.23,11.77,-0.99,-0.23,11.77,-0.99,0.11,11.7,-1.13,0,0,0,0,0,0,27.57,-0.56,-9.99,-0.91,0.01,-0.01,0,47.4,-36.3,-12.9
8575,26.2,998.62,122.54,298.12,0,-96.44,-0.18,11.77,-0.97,-0.18,11.77,-0.97,-0.18,11.77,-0.97,0,0,0,0,0,0,27.61,0.05,-10,-0.86,-0.01,0.01,0,49.05,-30.15,-11.25
8617,26.2,998.62,122.54,298.19,0,-96.44,-0.03,11.78,-1.19,-0.03,11.78,-1.19,-0.03,11.78,-1.19,0,0,0,0,0,0,27.71,-0.34,-9.95,-0.93,-0.02,0.03,-0.01,49.05,-30.15,-11.25
8665,26.2,998.63,122.48,298.31,-0.06,-96.5,-0.37,11.74,-1.36,-0.37,11.74,-1.36,-0.37,11.74,-1.36,0,0,0,0,0,0,27.57,0,-9.98,-1.38,-0.03,0.01,0.01,45.45,-27.9,-12.3
8707,26.2,998.62,122.48,298.31,-0.06,-96.56,-0.1,11.68,-1.63,-0.1,11.68,-1.63,-0.1,11.68,-1.63,0,0,0,0,0,0,27.71,-0.15,-10.01,-1.36,-0.02,0.01,0.01,45.45,-27.9,-12.3
8752,26.2,998.63,122.42,298.37,-0.06,-96.62,-0.31,11.73,-1.65,-0.31,11.73,-1.65,-0.33,11.74,-1.74,0,0,0,0,0,0,27.61,-0.06,-9.95,-1.59,0,-0.02,0.01,45.45,-27.9,-12.3
8794,26.2,998.63,122.47,298.37,-0.13,-96.69,-0.13,11.73,-1.61,-0.13,11.73,-1.61,-0.13,11.73,-1.61,0,0,0,0,0,0,27.52,-0.12,-9.93,-1.3,0.02,-0.01,0.01,43.95,-29.7,-15.45
8843,26.2,998.63,122.45,298.37,-0.13,-96.69,-0.17,11.74,-1.59,-0.17,11.74,-1.59,-0.17,11.74,-1.59,0,0,0,0,0,0,27.57,-0.22,-9.92,-1.21,0.02,-0.03,0.01,43.95,-29.7,-15.45
8882,26.2,998.63,122.46,298.31,-0.13,-96.62,-0.09,11.75,-1.1,-0.09,11.75,-1.1,-0.09,11.75,-1.1,0,0,0,0,0,0,27.57,-0.22,-9.92,-1.21,0.02,-0.03,0.01,43.95,-29.7,-15.45
8924,26.2,998.62,122.5,298.31,-0.13,-96.56,-0.07,11.71,-1.24,-0.07,11.71,-1.24,-0.07,11.71,-1.24,0,0,0,0,0,0,27.57,-0.21,-9.98,-0.91,0,0,0,44.85,-29.55,-14.25
8971,26.2,998.62,122.54,298.31,-0.13,-96.5,-0.13,11.72,-1.05,-0.13,11.72,-1.05,-0.13,11.72,-1.05,0,0,0,0,0,0,27.61,-0.23,-9.93,-0.92,-0.02,0.02,0,43.05,-27.75,-16.35
9013,26.2,998.62,122.51,298.37,-0.19,-96.5,-0.16,11.76,-1.13,-0.13,11.75,-1.26,-0.13,11.75,-1.26,0,0,0,0,0,0,27.37,-0.31,-9.99,-1.13,-0.02,0.03,0,43.05,-27.75,-16.35
9063,26.2,998.62,122.49,298.44,-0.19,-96.56,-0.38,11.74,-1.65,-0.38,11.74,-1.65,-0.33,11.72,-1.61,0,0,0,0,0,0,27.85,-0.12,-9.95,-1.37,-0.02,0,0,40.95,-33.6,-17.1
9105,26.2,998.62,122.52,298.44,-0.19,-96.62,-0.2,11.74,-1.66,-0.2,11.74,-1.66,-0.2,11.74,-1.66,0,0,0,0,0,0,27.85,-0.16,-10.01,-1.36,0,0,0.01,40.95,-33.6,-17.1
9152,26.2,998.62,122.53,298.5,-0.19,-96.69,-0.3,11.71,-1.69,-0.3,11.71,-1.69,-0.3,11.71,-1.69,0,0,0,0,0,0,27.61,-0.11,-9.97,-1.32,0.01,-0.03,0.01,40.95,-33.6,-17.1
9195,26.2,998.62,122.51,298.5,-0.25,-96.69,-0.12,11.76,-1.51,-0.12,11.76,-1.51,-0.12,11.76,-1.51,0,0,0,0,0,0,27.85,-0.21,-9.95,-1.23,0.01,-0.01,0.01,42.9,-33.9,-14.85
9236,26.2,998.62,122.54,298.44,-0.25,-96.62,-0.13,11.72,-1.27,-0.13,11.72,-1.27,-0.13,11.72,-1.27,0,0,0,0,0,0,27.37,-0.18,-10.01,-1.02,0.01,-0.02,0.01,42.9,-33.9,-14.85
9285,26.2,998.62,122.55,298.37,-0.25,-96.56,-0.07,11.73,-1.29,-0.07,11.73,-1.29,-0.07,11.73,-1.29,0,0,0,0,0,0,27.85,0.67,-9.99,-0.6,0,-0.01,0.01,43.05,-32.85,-15.3
9328,26.2,998.61,122.58,298.44,-0.25,-96.56,-0.04,11.74,-1.15,-0.04,11.74,-1.15,-0.04,11.74,-1.15,0,0,0,0,0,0,27.57,-0.25,-10.05,-0.94,-0.02,-0.03,0.01,43.05,-32.85,-15.3
9370,26.2,998.61,122.59,298.44,-0.25,-96.62,-0.05,11.82,-1.39,-0.05,11.82,-1.39,-0.05,11.82,-1.39,0,0,0,0,0,0,27.61,0.13,-10.07,-0.75,-0.03,0.04,0.01,42.15,-33.45,-17.55
9411,26.2,998.62,122.55,298.56,-0.25,-96.69,-0.14,11.71,-1.81,-0.14,11.71,-1.81,-0.14,11.71,-1.81,0,0,0,0,0,0,27.52,-0.62,-9.93,-1.73,-0.02,-0.01,0,42.15,-33.45,-17.55
9455,26.2,998.62,122.56,298.56,-0.25,-96.75,-0.01,11.77,-1.48,-0.16,11.77,-1.47,-0.16,11.77,-1.47,0,0,0,0,0,0,27.9,-0.08,-9.99,-1.26,-0.01,0.03,-0.01,42.15,-33.45,-17.55
9505,26.2,998.62,122.56,298.69,-0.31,-96.75,-0.13,11.73,-1.74,-0.17,11.73,-1.65,-0.17,11.73,-1.65,0,0,0,0,0,0,27.61,0.02,-9.97,-1.29,0.01,-0.03,-0.01,43.65,-33.15,-15.15
9546,26.2,998.61,122.6,298.69,-0.37,-96.75,-0.33,11.75,-1.23,-0.33,11.75,-1.23,-0.33,11.75,-1.23,0,0,0,0,0,0,27.71,0.13,-9.96,-1.22,0.01,-0.05,0.01,43.65,-33.15,-15.15
9594,26.2,998.62,122.54,298.69,-0.37,-96.69,-0.31,11.73,-1.35,-0.31,11.73,-1.35,-0.31,11.73,-1.35,0,0,0,0,0,0,27.61,0.02,-9.99,-1,0,-0.07,0.02,41.4,-32.7,-16.2
9636,26.2,998.62,122.56,298.56,-0.37,-96.69,-0.1,11.74,-1.38,-0.1,11.74,-1.38,-0.1,11.74,-1.38,0,0,0,0,0,0,27.61,-0.14,-9.91,-1.13,-0.01,-0.03,0.03,41.4,-32.7,-16.2
9686,26.2,998.61,122.57,298.44,-0.31,-96.69,-0.17,11.77,-1.27,-0.14,11.76,-1.42,-0.14,11.76,-1.42,0,0,0,0,0,0,27.9,-0.34,-9.96,-1.41,-0.02,0,0.03,42.45,-33.9,-15.15
9727,26.2,998.61,122.62,298.44,-0.31,-96.69,0.11,11.74,-1.68,0.11,11.74,-1.68,0.11,11.74,-1.68,0,0,0,0,0,0,27.76,-0.44,-10.02,-1.2,-0.01,-0.03,0.01,42.45,-33.9,-15.15
9769,26.2,998.62,122.54,298.44,-0.31,-96.69,-0.8,11.56,-0.43,-0.8,11.56,-0.43,-0.8,11.56,-0.43,0,0,0,0,0,0,27.42,-0.62,-10.02,-1.82,0,0,0,43.65,-34.2,-15.45
9811,26.2,998.62,122.55,298.44,-0.31,-96.69,0.42,11.56,-2.14,0.42,11.56,-2.14,0.42,11.56,-2.14,0,0,0,0,0,0,27.71,-0.27,-9.97,-0.8,0,0.01,-0.01,43.65,-34.2,-15.45
9856,26.2,998.63,122.45,298.56,-0.31,-96.69,0.06,11.71,-1.9,0.06,11.71,-1.9,0.14,11.72,-2.17,0,0,0,0,0,0,27.76,-0.86,-9.99,-1.79,0.01,0.04,-0.02,43.65,-34.2,-15.45
9909,26.2,998.63,122.46,298.75,-0.44,-96.62,-0.35,11.73,-1.05,-0.62,11.77,-1.01,-0.62,11.77,-1.01,0,0,0,0,0,0,27.61,-0.13,-9.88,-1.42,0.02,0.01,-0.03,40.95,-32.85,-15.3
9955,26.2,998.63,122.48,298.87,-0.5,-96.56,-0.27,11.83,-1.55,-0.27,11.83,-1.55,-0.27,11.83,-1.55,0,0,0,0,0,0,27.71,-0.06,-9.96,-1.03,0.01,-0.01,0,40.95,-32.85,-15.3
9995,26.2,998.62,122.48,298.87,-0.56,-96.56,-0.58,11.7,-1.19,-0.58,11.7,-1.19,-0.58,11.7,-1.19,0,0,0,0,0,0,27.71,-0.06,-9.96,-1.03,0.01,-0.01,0,40.95,-32.85,-15.3
10038,26.2,998.62,122.51,298.94,-0.56,-96.56,-0.7,11.77,-1,-0.7,11.77,-1,-0.7,11.77,-1,0,0,0,0,0,0,27.57,-0.03,-10.02,-0.9,-0.02,-0.01,0.04,41.4,-33.9,-15.15
10078,26.2,998.62,122.49,298.87,-0.56,-96.56,0.11,11.64,-1.65,0.11,11.64,-1.65,0.11,11.64,-1.65,0,0,0,0,0,0,27.61,-0.32,-10.03,-0.97,-0.03,0.01,0.04,42.75,-34.35,-16.05
10127,26.2,998.62,122.52,298.81,-0.44,-96.62,-0.23,11.75,-1.29,-0.13,11.76,-1.45,-0.13,11.76,-1.45,0,0,0,0,0,0,27.71,-0.69,-9.81,-1.51,-0.02,-0.04,0.02,42.75,-34.35,-16.05
10169,26.2,998.62,122.55,298.69,-0.37,-96.69,0.81,11.38,-2.95,0.81,11.38,-2.95,0.81,11.38,-2.95,0,0,0,0,0,0,27.76,-0.51,-10.34,-1.58,0,0.04,0.01,42.75,-35.1,-15.6
10214,26.2,998.62,122.52,298.75,-0.37,-96.69,-0.48,11.77,-0.52,-0.48,11.77,-0.52,-0.48,11.77,-0.52,0,0,0,0,0,0,27.71,-0.6,-9.94,-1.7,0.02,-0.04,-0.02,42.75,-35.1,-15.6
10257,26.2,998.62,122.55,298.75,-0.44,-96.62,0.33,11.76,-2.27,-0.24,11.74,-0.96,-0.24,11.74,-0.96,0,0,0,0,0,0,27.61,0.41,-9.94,-0.27,0.02,0.01,-0.01,42.75,-35.1,-15.6
10308,26.2,998.62,122.54,298.87,-0.5,-96.56,-0.31,11.73,-1.27,-0.17,11.71,-1.42,-0.17,11.71,-1.42,0,0,0,0,0,0,27.76,-0.21,-9.96,-1.58,0,0.01,-0.01,43.2,-32.7,-15.15
10349,26.2,998.61,122.58,298.87,-0.5,-96.56,-0.49,11.74,-1.08,-0.49,11.74,-1.08,-0.49,11.74,-1.08,0,0,0,0,0,0,27.61,-0.39,-9.93,-1.75,-0.01,0.02,0.01,43.2,-32.7,-15.15
10392,26.2,998.62,122.55,298.81,-0.5,-96.56,-0.04,11.67,-1.63,-0.04,11.67,-1.63,-0.04,11.67,-1.63,0,0,0,0,0,0,27.9,0.27,-10.07,-1.2,-0.01,-0.03,0.01,43.65,-32.7,-14.85
10437,26.2,998.62,122.53,298.81,-0.5,-96.56,-0.07,11.7,-1.32,-0.07,11.7,-1.32,0.24,11.75,-1.72,0,0,0,0,0,0,27.61,-0.56,-9.91,-1.38,0,-0.01,0.01,43.65,-32.7,-14.85
10480,26.2,998.62,122.55,298.81,-0.5,-96.56,-0.33,11.73,-1.46,-0.33,11.73,-1.46,-0.33,11.73,-1.46,0,0,0,0,0,0,27.57,-0.37,-9.94,-1.14,0.01,-0.01,0.01,42.9,-33.45,-15.9
10528,26.2,998.63,122.45,298.75,-0.5,-96.5,0.11,11.75,-1.36,0.07,11.76,-1.92,0.07,11.76,-1.92,0,0,0,0,0,0,27.76,-0.41,-9.89,-1.23,0.02,0.01,0,42.9,-33.45,-15.9
10570,26.2,998.63,122.46,298.75,-0.5,-96.5,-0.12,11.62,-1.4,-0.12,11.62,-1.4,-0.12,11.62,-1.4,0,0,0,0,0,0,27.76,-0.17,-9.73,-1.41,0.02,0,-0.01,42.15,-33.9,-13.8
10612,26.2,998.62,122.51,298.75,-0.56,-96.44,0,11.78,-1.47,0,11.78,-1.47,0,11.78,-1.47,0,0,0,0,0,0,27.52,0.23,-9.99,-0.91,0.02,-0.01,0,42.15,-33.9,-13.8
10657,26.2,998.62,122.53,298.81,-0.62,-96.37,-0.43,11.78,-0.86,-0.43,11.78,-0.86,-0.43,11.78,-0.86,0,0,0,0,0,0,27.52,-0.01,-9.99,-0.64,0.01,0,0,42.15,-33.9,-13.8
10699,26.2,998.62,122.51,298.81,-0.62,-96.37,-0.4,11.78,-1.18,-0.4,11.78,-1.18,-0.4,11.78,-1.18,0,0,0,0,0,0,27.57,0.04,-10.03,-1.01,-0.02,-0.02,0.02,41.55,-31.8,-16.05
10749,26.2,998.62,122.48,298.94,-0.69,-96.37,-0.34,11.78,-0.95,-0.2,11.75,-1,-0.2,11.75,-1,0,0,0,0,0,0,27.61,-0.36,-9.94,-0.83,-0.04,0,0.03,41.55,-31.8,-16.05
10791,26.2,998.62,122.56,298.94,-0.62,-96.44,-0.56,11.76,-1.21,-0.56,11.76,-1.21,-0.56,11.76,-1.21,0,0,0,0,0,0,27.85,0.09,-9.96,-0.44,-0.05,0.03,0.02,41.25,-33.3,-15.3
10838,26.2,998.62,122.52,298.94,-0.56,-96.56,0.43,11.69,-2.24,0.43,11.69,-2.24,0.38,11.6,-2.35,0,0,0,0,0,0,27.42,-0.61,-9.85,-1.8,-0.06,0.08,0.03,41.25,-33.3,-15.3
10879,26.2,998.62,122.48,299,-0.56,-96.69,-0.59,11.93,-0.77,-0.56,11.78,-1.36,-0.56,11.78,-1.36,0,0,0,0,0,0,27.42,0.23,-9.94,-1.04,-0.02,-0.11,0.01,43.35,-32.55,-15.6
10928,26.2,998.63,122.4,298.75,-0.5,-96.75,0.82,11.61,-2.98,0.82,11.61,-2.98,0.82,11.61,-2.98,0,0,0,0,0,0,27.52,-0.19,-10.09,-1.03,0.02,0.04,-0.01,43.35,-32.55,-15.6
10970,26.2,998.63,122.44,298.75,-0.5,-96.69,-0.55,11.78,-1.75,-0.55,11.78,-1.75,-0.23,11.7,-1.71,0,0,0,0,0,0,27.42,-0.5,-9.96,-2.09,0.07,-0.05,-0.03,42.15,-32.7,-15.45
11017,26.2,998.64,122.39,298.69,-0.56,-96.5,-0.02,11.72,-1.56,-0.02,11.72,-1.56,-0.02,11.72,-1.56,0,0,0,0,0,0,27.76,-0.1,-9.89,-1.55,0.06,-0.04,-0.02,42.15,-32.7,-15.45
11058,26.2,998.63,122.42,298.62,-0.62,-96.37,-0.23,11.64,-0.71,-0.23,11.64,-0.71,-0.23,11.64,-0.71,0,0,0,0,0,0,27.76,-0.1,-9.89,-1.55,0.06,-0.04,-0.02,42.15,-32.7,-15.45
11101,26.2,998.63,122.4,298.62,-0.62,-96.25,-0.24,11.77,-0.95,-0.24,11.77,-0.95,-0.24,11.77,-0.95,0,0,0,0,0,0,27.61,-0.16,-9.95,-0.52,0.02,0,-0.01,42.15,-32.7,-15.45
11151,26.2,998.63,122.45,298.62,-0.62,-96.25,-0.37,11.79,-0.88,-0.31,11.78,-0.81,-0.31,11.78,-0.81,0,0,0,0,0,0,27.37,-0.02,-9.84,-0.34,-0.01,0.01,0.01,42.15,-32.7,-15.45
11193,26.2,998.63,122.4,298.62,-0.69,-96.12,-0.18,11.78,-1.15,-0.18,11.78,-1.15,-0.18,11.78,-1.15,0,0,0,0,0,0,27.61,-0.24,-10.19,-1.09,-0.02,0.01,0.01,42.15,-32.7,-15.45
11237,26.2,998.63,122.44,298.69,-0.69,-96.19,-0.29,11.73,-1.25,-0.29,11.73,-1.25,-0.29,11.73,-1.25,0,0,0,0,0,0,27.61,-0.09,-9.94,-1.07,-0.04,0.04,0.01,42.15,-32.7,-15.45
11279,26.2,998.63,122.41,298.75,-0.69,-96.25,-0.19,11.74,-1.3,-0.19,11.74,-1.3,-0.19,11.74,-1.3,0,0,0,0,0,0,27.71,0.02,-10.06,-1.22,-0.03,0,0.01,42.15,-32.7,-15.45
11320,26.2,998.63,122.42,298.75,-0.69,-96.31,-0.09,11.75,-1.78,-0.09,11.75,-1.78,-0.06,11.75,-1.66,0,0,0,0,0,0,27.57,-0.35,-9.93,-1.68,-0.01,-0.02,0.01,42.15,-32.7,-15.45
11371,26.2,998.63,122.42,298.81,-0.69,-96.31,-0.19,11.75,-1.7,-0.19,11.75,-1.7,-0.19,11.75,-1.7,0,0,0,0,0,0,27.85,-0.18,-9.94,-1.32,0.01,0,0.01,42.15,-32.7,-15.45
11413,26.2,998.63,122.42,298.87,-0.69,-96.44,0,11.75,-1.54,0,11.75,-1.54,0,11.75,-1.54,0,0,0,0,0,0,27.52,-0.34,-9.98,-1.28,0.01,-0.01,0,42.15,-32.7,-15.45
11461,26.2,998.62,122.54,298.87,-0.69,-96.37,-0.11,11.73,-1.49,-0.11,11.73,-1.49,-0.09,11.75,-1.5,0,0,0,0,0,0,27.71,-0.17,-9.97,-1.17,0.01,-0.04,-0.01,42.15,-32.7,-15.45
11503,26.2,998.62,122.49,298.87,-0.75,-96.31,-0.24,11.73,-1.14,-0.24,11.73,-1.14,-0.24,11.73,-1.14,0,0,0,0,0,0,27.76,-0.12,-9.96,-1.12,0.01,0,-0.01,42.15,-32.7,-15.45
11552,26.2,998.63,122.4,298.94,-0.75,-96.31,-0.28,11.75,-1.26,-0.47,11.76,-1.3,-0.47,11.76,-1.3,0,0,0,0,0,0,27.71,0.05,-10.02,-1.04,0,-0.03,0.01,42.15,-32.7,-15.45
11593,26.2,998.63,122.4,298.94,-0.75,-96.31,-0.2,11.73,-1.19,-0.2,11.73,-1.19,-0.2,11.73,-1.19,0,0,0,0,0,0,27.95,-0.18,-9.9,-0.82,0,-0.02,0.01,42.15,-32.7,-15.45
11636,26.2,998.63,122.48,298.94,-0.75,-96.31,-0.13,11.74,-1.3,-0.13,11.74,-1.3,-0.13,11.74,-1.3,0,0,0,0,0,0,27.57,-0.12,-9.99,-1.06,-0.01,-0.01,0.01,42.15,-32.7,-15.45
11678,26.2,998.62,122.52,298.87,-0.75,-96.31,-0.27,11.65,-1.58,-0.27,11.65,-1.58,-0.27,11.65,-1.58,0,0,0,0,0,0,27.71,-0.08,-9.85,-1.35,-0.01,-0.03,0.02,42.15,-32.7,-15.45
11721,26.2,998.62,122.53,298.75,-0.75,-96.31,0.15,11.62,-1.77,0.15,11.62,-1.77,0,11.8,-2.45,0,0,0,0,0,0,27.71,0.27,-10,0.81,0.03,-0.03,0.01,42.15,-32.7,-15.45
11769,26.2,998.61,122.58,298.75,-0.75,-96.25,-0.25,11.57,-0.09,-0.25,11.57,-0.09,-0.25,11.57,-0.09,0,0,0,0,0,0,27.71,-0.92,-9.5,-1.88,0.06,-0.06,-0.04,42.15,-32.7,-15.45
11813,26.2,998.61,122.58,298.81,-0.81,-96.12,0.49,12.47,-1.55,-0.51,11.81,-1.47,-0.51,11.81,-1.47,0,0,0,0,0,0,27.57,0.5,-9.99,-1.86,0.03,0,0.02,42.15,-32.7,-15.45
11855,26.2,998.61,122.59,298.87,-0.81,-96.06,-0.32,11.59,-0.67,-0.32,11.59,-0.67,-0.32,11.59,-0.67,0,0,0,0,0,0,27.95,-0.35,-10.03,-0.18,-0.04,-0.07,0.01,42.15,-32.7,-15.45
11898,26.2,998.62,122.56,298.81,-0.81,-96.12,0.27,11.66,-0.9,0.27,11.66,-0.9,0.27,11.66,-0.9,0,0,0,0,0,0,27.76,0.02,-9.85,-1.23,-0.04,0.15,0,42.15,-32.7,-15.45
11941,26.2,998.62,122.55,299.06,-0.88,-96.19,-0.46,11.61,-1.54,-0.46,11.61,-1.54,-0.46,11.61,-1.54,0,0,0,0,0,0,27.71,-0.39,-9.92,-0.65,-0.04,-0.01,-0.01,42.15,-32.7,-15.45
11992,26.2,998.62,122.53,299.06,-0.88,-96.31,-0.26,11.89,-1.29,-0.26,11.89,-1.29,-0.51,11.95,-1.64,0,0,0,0,0,0,27.61,0.2,-10.15,-1.6,-0.02,0.05,0,44.1,-31.8,-14.25
12034,26.2,998.62,122.52,299.19,-0.88,-96.37,-0.33,11.69,-1.8,-0.33,11.69,-1.8,-0.33,11.69,-1.8,0,0,0,0,0,0,27.71,-0.29,-9.83,-1.04,-0.02,-0.02,0.01,44.1,-31.8,-14.25
12082,26.2,998.62,122.5,299.12,-0.88,-96.44,-0.25,11.87,-1.31,-0.25,11.87,-1.31,-0.25,11.87,-1.31,0,0,0,0,0,0,27.85,0.28,-10.13,-1.46,0,0.02,0.02,45.15,-31.05,-11.1
12123,26.2,998.62,122.54,299.12,-0.88,-96.44,-0.35,11.71,-1.8,-0.35,11.71,-1.8,-0.08,11.72,-1.72,0,0,0,0,0,0,27.61,-0.31,-9.99,-1.47,0,-0.04,0.02,45.15,-31.05,-11.1
12172,26.2,998.62,122.56,299,-0.81,-96.44,-0.14,11.71,-1.35,-0.14,11.71,-1.35,-0.14,11.71,-1.35,0,0,0,0,0,0,27.85,-0.14,-10,-1.37,0.01,0.01,0.02,45.15,-31.05,-11.1
12215,26.2,998.62,122.52,298.94,-0.75,-96.37,0.07,11.73,-1.35,0.07,11.73,-1.35,0.07,11.73,-1.35,0,0,0,0,0,0,27.76,-0.49,-9.97,-0.99,0.01,-0.01,0,47.1,-29.55,-8.25
12257,26.2,998.62,122.51,298.94,-0.75,-96.37,-0.07,11.77,-1.27,-0.07,11.77,-1.27,-0.07,11.77,-1.27,0,0,0,0,0,0,27.61,-0.22,-9.96,-1.22,0,0.02,-0.01,47.1,-29.55,-8.25
12301,26.2,998.62,122.51,298.94,-0.81,-96.37,-0.11,11.76,-1.29,-0.11,11.76,-1.29,-0.11,11.76,-1.29,0,0,0,0,0,0,27.71,-0.32,-9.99,-0.9,0,0.02,-0.01,47.4,-30.6,-8.25
12345,26.2,998.62,122.5,299,-0.81,-96.37,-0.2,11.73,-1.26,-0.38,11.73,-1.46,-0.38,11.73,-1.46,0,0,0,0,0,0,27.71,0.06,-9.98,-1.24,-0.01,0.02,-0.01,47.4,-30.6,-8.25
12395,26.2,998.62,122.49,299.12,-0.88,-96.37,-0.34,11.76,-1.29,-0.31,11.76,-1.29,-0.31,11.76,-1.29,0,0,0,0,0,0,27.95,-0.1,-10.01,-1.03,-0.01,0.01,0,45,-29.7,-7.35
12437,26.2,998.62,122.49,299.19,-0.88,-96.37,-0.45,11.71,-1.55,-0.45,11.71,-1.55,-0.45,11.71,-1.55,0,0,0,0,0,0,27.57,0.05,-10.02,-1.33,-0.01,-0.02,0.01,45,-29.7,-7.35
12480,26.2,998.61,122.59,299.19,-0.94,-96.44,-0.28,11.75,-1.43,-0.28,11.75,-1.43,-0.28,11.75,-1.43,0,0,0,0,0,0,27.57,-0.21,-9.96,-1.29,-0.01,-0.01,0.02,45.9,-30.3,-8.25
12523,26.2,998.62,122.52,299.12,-0.88,-96.44,-0.22,11.74,-1.58,-0.22,11.74,-1.58,-0.22,11.74,-1.58,0,0,0,0,0,0,27.76,-0.19,-9.98,-1.24,0,-0.02,0.02,45.9,-30.3,-8.25
12566,26.2,998.62,122.52,299.06,-0.88,-96.44,-0.07,11.74,-1.41,0.07,11.74,-1.36,0.07,11.74,-1.36,0,0,0,0,0,0,27.57,-0.41,-9.99,-1.17,0.01,-0.01,0.01,45.9,-30.3,-8.25
12616,26.2,998.62,122.5,299,-0.81,-96.44,-0.04,11.76,-1.36,-0.04,11.74,-1.33,-0.04,11.74,-1.33,0,0,0,0,0,0,27.61,-0.33,-9.97,-1.1,0,-0.01,0,46.65,-31.35,-8.25
12657,26.2,998.63,122.48,299,-0.81,-96.44,0,11.75,-1.28,0,11.75,-1.28,0,11.75,-1.28,0,0,0,0,0,0,27.76,-0.32,-9.98,-1.04,0,0.01,0,46.65,-31.35,-8.25
12704,26.2,998.63,122.46,299,-0.81,-96.44,-0.23,11.74,-1.34,-0.23,11.74,-1.34,-0.23,11.74,-1.34,0,0,0,0,0,0,27.71,-0.09,-10,-1.19,-0.01,0,-0.01,46.35,-31.8,-10.35
12746,26.2,998.63,122.44,299.06,-0.88,-96.44,-0.25,11.72,-1.37,-0.25,11.72,-1.37,-0.25,11.72,-1.37,0,0,0,0,0,0,27.85,0.01,-9.97,-1.19,-0.01,0.01,-0.01,46.35,-31.8,-10.35
12788,26.2,998.63,122.4,299.12,-0.88,-96.44,-0.41,11.7,-1.58,-0.41,11.7,-1.58,-0.41,11.7,-1.58,0,0,0,0,0,0,27.95,0.09,-9.89,-1.21,-0.01,-0.02,0.01,45.9,-32.85,-9.6
12839,26.2,998.63,122.4,299.12,-0.94,-96.44,-0.29,11.71,-1.66,-0.29,11.71,-1.66,-0.27,11.69,-1.46,0,0,0,0,0,0,27.61,-0.03,-10.03,-1.2,0,0.03,0.02,45.9,-32.85,-9.6
12879,26.2,998.64,122.38,299.06,-0.88,-96.5,-0.16,11.71,-1.61,-0.16,11.71,-1.61,-0.16,11.71,-1.61,0,0,0,0,0,0,27.76,-0.12,-10.02,-1.12,0,-0.03,0.02,44.55,-32.55,-11.1
12922,26.2,998.63,122.41,299,-0.88,-96.5,-0.09,11.75,-1.23,-0.09,11.75,-1.23,-0.09,11.75,-1.23,0,0,0,0,0,0,27.76,-0.34,-10,-0.98,0,-0.01,0.01,44.55,-32.55,-11.1
12967,26.2,998.64,122.39,298.94,-0.81,-96.5,0.06,11.75,-1.45,0,11.74,-1.54,0,11.74,-1.54,0,0,0,0,0,0,27.57,-0.2,-9.96,-1.4,0,-0.05,0,44.55,-32.55,-11.1
13017,26.2,998.63,122.47,298.87,-0.81,-96.5,-0.02,11.74,-1.17,-0.07,11.73,-1.13,-0.07,11.73,-1.13,0,0,0,0,0,0,27.52,-0.42,-9.98,-1.15,0,0.02,0,44.7,-31.65,-11.55
13058,26.2,998.63,122.47,298.87,-0.81,-96.5,0,11.72,-1.55,0,11.72,-1.55,0,11.72,-1.55,0,0,0,0,0,0,27.61,-0.08,-9.97,-1.02,-0.01,0,0,44.7,-31.65,-11.55
13100,26.2,998.63,122.46,299,-0.88,-96.5,-0.11,11.72,-1.06,-0.11,11.72,-1.06,-0.11,11.72,-1.06,0,0,0,0,0,0,27.71,-0.17,-9.98,-1.07,-0.01,0.02,-0.01,45.6,-31.35,-11.85
13146,26.2,998.62,122.5,299.06,-0.88,-96.5,-0.29,11.75,-1.52,-0.29,11.75,-1.52,-0.32,11.74,-1.45,0,0,0,0,0,0,27.85,0.02,-9.97,-1.13,-0.01,-0.02,0,45.6,-31.35,-11.85
13188,26.2,998.63,122.41,299.06,-0.94,-96.5,-0.19,11.76,-1.4,-0.19,11.76,-1.4,-0.19,11.76,-1.4,0,0,0,0,0,0,27.61,-0.07,-9.96,-1.28,-0.01,0.03,0,46.8,-32.4,-12
13238,26.2,998.63,122.42,299.12,-0.94,-96.5,-0.51,11.73,-1.47,-0.39,11.72,-1.45,-0.39,11.72,-1.45,0,0,0,0,0,0,27.71,-0.09,-9.97,-1.09,-0.01,-0.01,0.01,46.8,-32.4,-12
13279,26.2,998.63,122.46,299.12,-0.94,-96.5,-0.17,11.72,-1.48,-0.17,11.72,-1.48,-0.17,11.72,-1.48,0,0,0,0,0,0,27.76,-0.14,-9.96,-1.36,0,0.01,0.01,46.8,-32.4,-12
13323,26.2,998.63,122.45,299.12,-0.94,-96.5,-0.23,11.74,-1.45,-0.23,11.74,-1.45,-0.23,11.74,-1.45,0,0,0,0,0,0,27.85,-0.23,-9.99,-1.14,0,-0.02,0.01,46.8,-33.15,-11.55
13366,26.2,998.63,122.41,299,-0.88,-96.5,0.07,11.73,-1.44,0.07,11.73,-1.44,0.07,11.73,-1.44,0,0,0,0,0,0,27.71,-0.31,-9.96,-1.23,0,0.01,0,46.8,-33.15,-11.55
13409,26.2,998.63,122.42,299,-0.88,-96.5,-0.11,11.74,-1.3,-0.11,11.74,-1.3,-0.11,11.74,-1.3,0,0,0,0,0,0,27.76,-0.26,-10,-1.07,0,0,0,47.25,-32.4,-12
13459,26.2,998.63,122.4,299,-0.88,-96.5,-0.17,11.75,-1.33,-0.17,11.75,-1.33,-0.17,11.75,-1.33,0,0,0,0,0,0,27.71,-0.18,-9.95,-1.09,0,0.01,-0.01,47.25,-32.4,-12
13500,26.2,998.63,122.42,299.06,-0.94,-96.5,-0.23,11.74,-1.37,-0.23,11.74,-1.37,-0.23,11.74,-1.37,0,0,0,0,0,0,27.61,-0.16,-9.98,-1.13,0,0.01,0,46.5,-32.4,-12.3
13545,26.2,998.64,122.35,299.06,-0.94,-96.5,-0.25,11.73,-1.38,-0.25,11.73,-1.38,-0.25,11.73,-1.38,0,0,0,0,0,0,27.9,0,-9.96,-1.11,-0.01,0.01,0,46.5,-32.4,-12.3
13589,26.2,998.63,122.42,299.12,-0.94,-96.5,-0.35,11.75,-1.4,-0.3,11.72,-1.42,-0.3,11.72,-1.42,0,0,0,0,0,0,27.71,-0.05,-9.99,-1.18,-0.01,0,0.01,45,-31.65,-10.2
13639,26.2,998.63,122.46,299.12,-0.94,-96.56,-0.31,11.72,-1.44,-0.28,11.74,-1.46,-0.28,11.74,-1.46,0,0,0,0,0,0,27.61,-0.07,-9.94,-1.2,-0.01,-0.02,0.01,45,-31.65,-10.2
13680,26.2,998.62,122.49,299.12,-0.94,-96.56,-0.13,11.74,-1.45,-0.13,11.74,-1.45,-0.13,11.74,-1.45,0,0,0,0,0,0,27.57,-0.2,-10.03,-1.21,0,-0.01,0.02,45,-31.65,-10.2
13721,26.2,998.62,122.49,299.06,-0.94,-96.56,-0.13,11.73,-1.4,-0.13,11.73,-1.4,-0.13,11.73,-1.4,0,0,0,0,0,0,27.76,-0.23,-9.96,-1.21,0,0,0.01,46.65,-32.85,-12.9
13768,26.2,998.62,122.52,299.06,-0.94,-96.56,-0.05,11.73,-1.41,-0.05,11.73,-1.41,-0.02,11.74,-1.38,0,0,0,0,0,0,27.9,-0.34,-9.95,-1.17,0,0,0,46.65,-32.85,-12.9
13810,26.2,998.62,122.51,299.06,-0.94,-96.56,-0.12,11.75,-1.36,-0.12,11.75,-1.36,-0.12,11.75,-1.36,0,0,0,0,0,0,27.95,-0.18,-9.95,-1.15,0,0.01,-0.01,46.5,-31.65,-11.55
13860,26.2,998.63,122.48,299.06,-0.94,-96.56,-0.17,11.74,-1.33,-0.17,11.74,-1.33,-0.17,11.74,-1.33,0,0,0,0,0,0,27.71,-0.13,-9.96,-1.1,-0.01,0.01,0,46.5,-31.65,-11.55
13901,26.2,998.63,122.44,299.12,-0.94,-96.56,-0.28,11.74,-1.39,-0.28,11.74,-1.39,-0.28,11.74,-1.39,0,0,0,0,0,0,27.71,-0.07,-9.97,-1.13,-0.01,0.01,0,46.35,-34.05,-13.5
13948,26.2,998.63,122.47,299.12,-0.94,-96.56,-0.26,11.76,-1.4,-0.26,11.76,-1.4,-0.26,11.76,-1.4,0,0,0,0,0,0,27.76,-0.06,-10,-1.19,-0.01,0,0.01,46.35,-34.05,-13.5
13990,26.2,998.63,122.46,299.12,-0.94,-96.56,-0.29,11.75,-1.42,-0.29,11.75,-1.42,-0.29,11.75,-1.42,0,0,0,0,0,0,27.61,-0.1,-9.99,-1.24,0,-0.01,0.01,45,-32.4,-12
14032,26.2,998.62,122.5,299.06,-0.94,-96.56,-0.22,11.73,-1.41,-0.22,11.73,-1.41,-0.22,11.73,-1.41,0,0,0,0,0,0,27.37,-0.17,-9.98,-1.22,0,-0.01,0.01,45,-32.4,-12
14081,26.2,998.62,122.48,299.06,-0.94,-96.56,-0.09,11.72,-1.41,-0.09,11.72,-1.41,-0.09,11.72,-1.41,0,0,0,0,0,0,27.9,-0.26,-9.97,-1.18,0,-0.01,0.01,45,-32.4,-12
14122,26.2,998.62,122.54,299.06,-0.94,-96.56,-0.09,11.76,-1.37,-0.09,11.76,-1.37,-0.09,11.76,-1.37,0,0,0,0,0,0,27.76,-0.22,-9.98,-1.11,0,0,0,46.2,-31.65,-13.35
14167,26.2,998.62,122.51,299.06,-0.94,-96.56,-0.09,11.75,-1.36,-0.09,11.75,-1.36,-0.09,11.75,-1.36,0,0,0,0,0,0,27.57,-0.21,-9.96,-1.13,0,0.01,0,46.2,-31.65,-13.35
14211,26.2,998.63,122.47,299.06,-0.94,-96.56,-0.16,11.74,-1.37,-0.16,11.74,-1.37,-0.16,11.74,-1.37,0,0,0,0,0,0,27.52,-0.16,-9.99,-1.11,-0.01,0.01,0,46.35,-31.8,-12.45
14261,26.2,998.62,122.51,299.06,-0.94,-96.56,-0.22,11.75,-1.37,-0.25,11.75,-1.37,-0.25,11.75,-1.37,0,0,0,0,0,0,27.9,-0.09,-9.98,-1.17,-0.01,0.01,0,46.35,-31.8,-12.45
14305,26.2,998.63,122.48,299.12,-0.94,-96.56,-0.27,11.74,-1.47,-0.27,11.74,-1.47,-0.27,11.74,-1.47,0,0,0,0,0,0,27.85,-0.07,-10.05,-1.19,-0.01,0,0,44.1,-30.3,-11.85
14350,26.2,998.63,122.46,299.12,-0.94,-96.56,-0.27,11.74,-1.44,-0.27,11.74,-1.44,-0.26,11.74,-1.47,0,0,0,0,0,0,27.71,-0.06,-10,-1.23,0,0,0.01,44.1,-30.3,-11.85
14393,26.2,998.62,122.5,299.12,-0.94,-96.56,-0.19,11.72,-1.41,-0.19,11.72,-1.41,-0.19,11.72,-1.41,0,0,0,0,0,0,27.76,-0.17,-9.94,-1.16,0,-0.01,0.02,45,-30.45,-13.35
14434,26.2,998.63,122.46,299.06,-0.94,-96.56,-0.13,11.74,-1.38,-0.13,11.74,-1.38,-0.13,11.74,-1.38,0,0,0,0,0,0,27.57,-0.18,-9.99,-1.12,0,-0.01,0.01,45,-30.45,-13.35
14482,26.2,998.62,122.55,299.06,-0.94,-96.56,-0.09,11.76,-1.35,-0.09,11.76,-1.35,-0.09,11.76,-1.35,0,0,0,0,0,0,27.61,-0.2,-9.95,-1.11,-0.01,0,0,45,-30.45,-13.35
14524,26.2,998.62,122.53,299.06,-0.94,-96.56,-0.09,11.74,-1.31,-0.09,11.74,-1.31,-0.09,11.74,-1.31,0,0,0,0,0,0,27.71,-0.21,-9.97,-1.07,-0.01,0,0,42.45,-30.45,-14.1
14571,26.2,998.63,122.46,299.06,-0.94,-96.56,-0.12,11.74,-1.35,-0.12,11.74,-1.35,-0.15,11.74,-1.34,0,0,0,0,0,0,27.85,-0.2,-9.95,-1.15,0,0.01,0,42.45,-30.45,-14.1
14613,26.2,998.62,122.55,299.06,-0.94,-96.56,0.12,11.74,-1.36,0.12,11.74,-1.36,0.12,11.74,-1.36,0,0,0,0,0,0,27.71,-0.26,-10,-1.07,-0.01,0.03,0,41.1,-33.15,-18.75
14655,26.2,998.62,122.57,299.12,-0.94,-96.56,-0.32,11.74,-1.53,-0.32,11.74,-1.53,-0.32,11.74,-1.53,0,0,0,0,0,0,27.9,0.25,-9.95,-1.23,0,-0.01,0,41.1,-33.15,-18.75
14704,26.2,998.62,122.53,299.12,-1,-96.56,-0.22,11.75,-1.45,-0.22,11.75,-1.45,-0.22,11.75,-1.45,0,0,0,0,0,0,27.57,-0.01,-9.96,-1.06,-0.01,0.01,0,40.65,-34.2,-18.75
14744,26.2,998.62,122.53,299.12,-1,-96.56,-0.58,11.74,-1.29,-0.58,11.74,-1.29,-0.58,11.74,-1.29,0,0,0,0,0,0,27.61,0.34,-9.98,-1.34,0,-0.04,0.02,40.65,-34.2,-18.75
14787,26.2,998.62,122.52,299.06,-0.94,-96.56,-0.28,11.72,-1.29,-0.28,11.72,-1.29,-0.28,11.72,-1.29,0,0,0,0,0,0,27.85,-0.4,-9.99,-0.98,-0.01,-0.08,0.02,40.65,-34.2,-18.75
14829,26.2,998.62,122.53,298.87,-0.88,-96.56,-0.24,11.75,-1.38,-0.24,11.75,-1.38,-0.24,11.75,-1.38,0,0,0,0,0,0,27.57,0.03,-9.97,-1.4,-0.01,0,0.02,42.45,-34.65,-17.25
14877,26.2,998.62,122.51,298.75,-0.88,-96.56,0.21,11.73,-1.47,0.21,11.73,-1.47,0.21,11.73,-1.47,0,0,0,0,0,0,27.85,-0.34,-10.04,-0.8,0.01,0.04,0.01,42.45,-34.65,-17.25
14921,26.2,998.62,122.49,298.81,-0.88,-96.56,-0.03,11.78,-1.55,-0.03,11.78,-1.55,-0.03,11.78,-1.55,0,0,0,0,0,0,27.95,-0.13,-10.06,-1.47,0.01,0.03,0,42.3,-34.35,-17.1
14964,26.2,998.62,122.5,298.94,-0.88,-96.5,0.16,11.74,-0.94,0.16,11.74,-0.94,0.16,11.74,-0.94,0,0,0,0,0,0,27.71,-0.41,-10.01,-0.83,0,0.14,-0.01,42.3,-34.35,-17.1
15014,26.2,998.62,122.49,299.19,-0.94,-96.5,0.03,11.63,-1.41,0.03,11.63,-1.41,0.03,11.63,-1.41,0,0,0,0,0,0,27.76,-0.65,-9.84,-1.01,-0.01,0.07,-0.03,43.05,-34.8,-17.4
15055,26.2,998.62,122.5,299.25,-1.06,-96.56,-0.48,11.7,-1.51,-0.48,11.7,-1.51,-0.48,11.7,-1.51,0,0,0,0,0,0,27.71,1.26,-10.05,-1.27,-0.04,-0.1,-0.05,43.05,-34.8,-17.4
15104,26.2,998.62,122.49,299.19,-1.12,-96.62,0.03,11.73,-1.38,0.03,11.73,-1.38,0.03,11.73,-1.38,0,0,0,0,0,0,27.71,-0.75,-9.88,-1.07,-0.01,0.14,0.02,40.65,-34.65,-18.3
15146,26.2,998.63,122.47,299.37,-1.19,-96.62,-0.79,11.66,-2.15,-0.79,11.66,-2.15,-0.79,11.66,-2.15,0,0,0,0,0,0,27.85,0.68,-10.36,-0.91,0,-0.05,0.02,40.65,-34.65,-18.3
15189,26.2,998.62,122.49,299.31,-1.12,-96.62,0.25,12.21,-1.15,0.25,12.21,-1.15,0.25,12.21,-1.15,0,0,0,0,0,0,27.76,-0.11,-9.92,-1.5,0.02,0.06,0.03,40.65,-34.65,-18.3
15230,26.2,998.62,122.5,299.31,-1.06,-96.56,-1.25,12.67,-1.02,-1.25,12.67,-1.02,-1.25,12.67,-1.02,0,0,0,0,0,0,27.57,0.68,-12.25,-0.9,-0.01,-0.06,0.03,42.3,-34.35,-16.8
15274,26.2,998.62,122.49,299.06,-1,-96.5,-0.17,14.33,-0.96,0,13.83,-1.3,0,13.83,-1.3,0,0,0,0,0,0,27.71,-0.48,-11.49,-0.32,0.06,-0.04,0.05,42.3,-34.35,-16.8
15324,26.2,998.62,122.52,299,-0.88,-96.37,-0.5,12.04,-1.49,0.3,10.68,-1.09,0.3,10.68,-1.09,0,0,0,0,0,0,27.76,-0.94,-9.98,-0.25,0.02,-0.11,0.01,42.3,-34.35,-16.8
15366,26.2,998.62,122.51,298.69,-0.88,-96.31,-0.28,12.14,-0.67,-0.28,12.14,-0.67,-0.28,12.14,-0.67,0,0,0,0,0,0,27.52,0.23,-10.42,-0.56,0,-0.11,0.01,42.3,-34.35,-16.8
15411,26.2,998.61,122.57,298.06,-0.81,-96.31,-0.03,11.5,-1.15,-0.03,11.5,-1.15,-0.03,11.5,-1.15,0,0,0,0,0,0,27.85,-0.05,-9.96,-1.2,-0.02,-0.16,0.01,42.3,-34.35,-16.8
15455,26.2,998.61,122.62,297.81,-0.75,-96.31,0.26,11,-1.21,-0.26,10.14,-0.78,-0.26,10.14,-0.78,0,0,0,0,0,0,27.85,0,-7.47,-0.55,0.02,0.13,-0.02,42.3,-34.35,-16.8
15505,26.2,998.6,122.67,298.06,-0.81,-96.31,0.52,8.8,-1.49,-0.26,10.8,-1.49,-0.26,10.8,-1.49,0,0,0,0,0,0,27.71,-0.15,-9.91,-1.46,-0.04,0.03,-0.01,42.3,-34.35,-16.8
15546,26.2,998.6,122.66,298.31,-0.88,-96.37,-1.01,13.5,-1.92,-1.01,13.5,-1.92,-1.01,13.5,-1.92,0,0,0,0,0,0,27.71,0.6,-12.21,-1.81,-0.02,0.34,0.03,42.3,-34.35,-16.8
15587,26.2,998.61,122.6,299,-0.94,-96.31,-0.93,13.58,-1.72,-0.93,13.58,-1.72,-0.93,13.58,-1.72,0,0,0,0,0,0,27.57,0.55,-11.9,-0.91,0.08,-0.01,0.04,42.3,-34.35,-16.8
15631,26.2,998.61,122.6,298.87,-0.81,-96.19,-0.06,9.89,-0.9,-0.06,9.89,-0.9,-0.06,9.89,-0.9,0,0,0,0,0,0,27.76,-0.53,-9.82,-1.05,-0.13,0.17,0.05,42.3,-34.35,-16.8
15675,26.2,998.61,122.61,299,-0.75,-96.37,1.75,10.48,-3.15,1.75,10.48,-3.15,-0.73,13.01,0.08,0,0,0,0,0,0,27.52,-1.16,-11.07,-4.05,-0.06,0.04,0.02,42.3,-34.35,-16.8
15725,26.2,998.61,122.6,299.31,-0.75,-96.37,-0.23,13.24,-2.61,-0.78,13.04,-1.12,-0.78,13.04,-1.12,0,0,0,0,0,0,27.61,0.05,-9.78,-0.72,0.01,-0.1,-0.02,42.3,-34.35,-16.8
15770,26.2,998.61,122.62,299.12,-0.75,-96.37,0.1,10.14,-0.64,0.1,10.14,-0.64,0.1,10.14,-0.64,0,0,0,0,0,0,27.52,-0.85,-7.7,-1.3,-0.03,-0.06,-0.02,42.3,-34.35,-16.8
15816,26.2,998.61,122.58,298.87,-0.81,-96.44,0.37,9.76,-0.48,0.41,11.21,-0.72,0.41,11.21,-0.72,0,0,0,0,0,0,27.33,-2.37,-10.57,-0.9,0.11,0.01,0.01,42.3,-34.35,-16.8
15857,26.2,998.61,122.58,298.81,-0.81,-96.5,-0.22,12.36,-0.65,-0.22,12.36,-0.65,-0.22,12.36,-0.65,0,0,0,0,0,0,27.85,0.16,-9.41,-2.02,0.01,-0.02,0.02,42.3,-34.35,-16.8
15901,26.2,998.61,122.63,298.62,-0.75,-96.5,0.34,12.05,-0.91,0.34,12.05,-0.91,0.34,12.05,-0.91,0,0,0,0,0,0,27.85,-0.31,-9.84,-1.62,0,-0.05,0,42.3,-34.35,-16.8
15949,26.2,998.6,122.69,298.56,-0.75,-96.5,-0.01,11.66,-1.38,-0.01,11.66,-1.38,-0.01,11.66,-1.38,0,0,0,0,0,0,27.71,-0.37,-10.06,-0.84,0,0.04,0,42.3,-34.35,-16.8
15989,26.2,998.6,122.7,298.69,-0.75,-96.5,-0.15,11.74,-1.31,-0.15,11.74,-1.31,-0.15,11.74,-1.31,0,0,0,0,0,0,27.85,-0.21,-10.05,-1.04,-0.01,0.01,0,42.3,-34.35,-16.8
16033,26.2,998.61,122.65,298.75,-0.75,-96.5,-0.11,11.7,-1.26,-0.11,11.7,-1.26,-0.11,11.7,-1.26,0,0,0,0,0,0,27.85,-0.23,-9.84,-1,-0.02,0.04,-0.01,42.3,-34.35,-16.8
16077,26.2,998.6,122.67,298.81,-0.81,-96.5,-0.09,11.08,-1.15,-0.09,11.08,-1.15,-0.09,11.08,-1.15,0,0,0,0,0,0,27.76,-0.11,-9.75,-1.16,-0.03,0.06,-0.01,42.3,-34.35,-16.8
16127,26.2,998.61,122.64,299,-0.81,-96.56,-0.15,11.4,-1.6,-0.24,11.65,-1.48,-0.24,11.65,-1.48,0,0,0,0,0,0,27.76,-0.09,-9.72,-1.31,-0.03,-0.05,-0.01,42.3,-34.35,-16.8
16168,26.2,998.61,122.62,298.94,-0.88,-96.62,-0.28,11.75,-1.51,-0.28,11.75,-1.51,-0.28,11.75,-1.51,0,0,0,0,0,0,27.61,-0.19,-10,-1.37,-0.02,-0.11,-0.01,42.3,-34.35,-16.8
16210,26.2,998.6,122.65,298.62,-0.88,-96.69,-0.38,12.59,-1.78,-0.38,12.59,-1.78,-0.38,12.59,-1.78,0,0,0,0,0,0,27.61,0.01,-10.82,-1.54,-0.01,-0.17,-0.01,42,-36.6,-17.1
16256,26.2,998.61,122.62,298.25,-0.88,-96.69,-0.18,11.61,-1.35,-0.18,11.61,-1.35,-0.16,11.68,-1.27,0,0,0,0,0,0,27.71,-0.3,-10.02,-1.22,0.01,-0.02,0,42,-36.6,-17.1
16298,26.2,998.6,122.69,298.19,-0.88,-96.69,-0.1,12.06,-1.99,-0.1,12.06,-1.99,-0.1,12.06,-1.99,0,0,0,0,0,0,27.61,-0.01,-10.1,-1.64,0,-0.09,0.01,41.85,-33.9,-16.95
16347,26.2,998.6,122.72,298,-0.81,-96.69,-0.47,11.65,-0.86,-0.47,11.65,-0.86,-0.21,11.58,-0.78,0,0,0,0,0,0,27.85,-0.15,-9.79,-0.47,0.02,-0.12,0.01,41.85,-33.9,-16.95
16389,26.2,998.6,122.71,297.69,-0.81,-96.62,-0.19,11.76,-1.79,-0.19,11.76,-1.79,-0.19,11.76,-1.79,0,0,0,0,0,0,27.37,0.05,-9.89,-1.32,0,-0.07,0.01,41.85,-33.9,-16.95
16432,26.2,998.61,122.59,297.44,-0.75,-96.62,-0.07,11.53,-0.62,-0.07,11.53,-0.62,-0.07,11.53,-0.62,0,0,0,0,0,0,27.76,-0.26,-9.83,-0.23,0,-0.05,0,42.3,-33.6,-16.35
16476,26.2,998.61,122.62,297.25,-0.75,-96.62,-0.2,11.76,-1.64,-0.2,11.76,-1.64,-0.2,11.76,-1.64,0,0,0,0,0,0,27.71,-0.11,-9.84,-1.51,-0.01,-0.07,0,42.3,-33.6,-16.35
16519,26.2,998.62,122.55,297.06,-0.75,-96.62,0.24,11.77,-1.34,0.24,11.77,-1.34,0.24,11.77,-1.34,0,0,0,0,0,0,27.57,-0.32,-10,-0.87,-0.02,0.14,0.01,41.4,-36.45,-16.2
16569,26.2,998.61,122.59,297.44,-0.75,-96.62,-0.44,11.71,-1.59,-0.11,11.83,-1.44,-0.11,11.83,-1.44,0,0,0,0,0,0,27.76,-0.21,-10.13,-1.24,0,-0.04,-0.01,41.4,-36.45,-16.2
16610,26.2,998.61,122.57,297.5,-0.81,-96.62,-0.23,11.75,-1.69,-0.23,11.75,-1.69,-0.23,11.75,-1.69,0,0,0,0,0,0,27.71,-0.15,-9.95,-1.08,0,-0.16,-0.01,42.75,-34.05,-17.1
16656,26.2,998.62,122.56,297,-0.81,-96.69,0,11.72,-1.36,0,11.72,-1.36,0,11.72,-1.36,0,0,0,0,0,0,27.57,-0.19,-9.96,-1.14,0,0.01,0,42.75,-34.05,-17.1
16698,26.2,998.61,122.61,297,-0.81,-96.69,-0.42,11.73,-1.44,-0.35,11.76,-1.41,-0.35,11.76,-1.41,0,0,0,0,0,0,27.71,-0.04,-10.01,-1.22,0,0.02,0,42.3,-34.35,-17.4
16749,26.2,998.6,122.66,297.06,-0.81,-96.69,-0.19,11.74,-1.36,-0.27,11.76,-1.28,-0.27,11.76,-1.28,0,0,0,0,0,0,27.85,-0.09,-10,-1.1,0,0.03,0.01,42.3,-34.35,-17.4
16790,26.2,998.6,122.66,297.12,-0.81,-96.69,-0.21,11.76,-1.46,-0.21,11.76,-1.46,-0.21,11.76,-1.46,0,0,0,0,0,0,27.71,-0.07,-9.94,-1.21,0,0.01,0,42.3,-34.35,-17.4
16832,26.2,998.6,122.68,297.19,-0.81,-96.69,-0.19,11.75,-1.36,-0.19,11.75,-1.36,-0.19,11.75,-1.36,0,0,0,0,0,0,27.61,-0.14,-9.95,-1.14,0,0.03,0.01,43.2,-36,-17.25
16878,26.2,998.6,122.67,297.25,-0.81,-96.62,-0.23,11.76,-1.4,-0.23,11.76,-1.4,-0.17,11.75,-1.39,0,0,0,0,0,0,27.61,-0.17,-9.95,-1.17,0,-0.05,0.01,43.2,-36,-17.25
16920,26.2,998.6,122.65,297.19,-0.81,-96.62,-0.36,11.77,-1.23,-0.36,11.77,-1.23,-0.36,11.77,-1.23,0,0,0,0,0,0,27.57,0.02,-10.05,-1.13,0.01,-0.2,0,41.55,-35.1,-15.6
16970,26.2,998.6,122.67,296.75,-0.75,-96.69,-0.09,11.75,-1.34,0.1,11.74,-1.13,0.1,11.74,-1.13,0,0,0,0,0,0,27.61,-0.52,-9.9,-1.08,0,0.05,0.02,41.55,-35.1,-15.6
17011,26.2,998.61,122.61,296.87,-0.75,-96.69,-0.63,11.72,-1.26,-0.63,11.72,-1.26,-0.63,11.72,-1.26,0,0,0,0,0,0,27.76,0.18,-9.95,-1.11,-0.01,0.09,0.02,44.1,-35.85,-17.4
17058,26.2,998.62,122.52,297,-0.75,-96.69,0.19,11.76,-1.47,0.19,11.76,-1.47,0.19,11.76,-1.47,0,0,0,0,0,0,27.61,-0.38,-9.8,-1.22,-0.02,-0.01,0.02,44.1,-35.85,-17.4
17100,26.2,998.61,122.57,296.94,-0.75,-96.69,-0.08,11.8,-1.4,-0.08,11.8,-1.4,0.05,11.73,-1.6,0,0,0,0,0,0,27.85,-0.32,-9.94,-1.27,-0.01,0.11,0,44.1,-35.85,-17.4
17142,26.2,998.61,122.57,297.12,-0.75,-96.69,-0.06,11.71,-1.44,-0.06,11.71,-1.44,-0.06,11.71,-1.44,0,0,0,0,0,0,27.76,-0.22,-10.02,-1.45,0,-0.1,-0.01,42.75,-35.55,-15.6
17189,26.2,998.61,122.61,296.94,-0.75,-96.75,-0.15,11.7,-1.36,-0.15,11.7,-1.36,-0.18,11.88,-0.92,0,0,0,0,0,0,27.71,-0.26,-10,-1.24,0.02,-0.08,-0.01,42.75,-35.55,-15.6
17235,26.2,998.61,122.58,296.69,-0.75,-96.69,-0.22,11.65,-1.69,-0.22,11.65,-1.69,-0.22,11.65,-1.69,0,0,0,0,0,0,27.76,-0.07,-9.91,-1.25,0,0.11,0,41.85,-33.9,-15.45
17281,26.2,998.61,122.59,296.94,-0.75,-96.69,-0.36,11.69,-1.41,-0.2,11.78,-1.31,-0.2,11.78,-1.31,0,0,0,0,0,0,27.9,0.16,-10,-0.98,0,0.21,0.01,41.85,-33.9,-15.45
17323,26.2,998.61,122.6,297.56,-0.88,-96.62,-0.39,11.8,-1.38,-0.39,11.8,-1.38,-0.39,11.8,-1.38,0,0,0,0,0,0,27.76,-0.21,-9.97,-1.33,-0.01,0.01,-0.01,43.35,-34.8,-16.05
17372,26.2,998.61,122.6,297.62,-0.88,-96.62,-0.11,11.72,-1.34,-0.11,11.72,-1.34,-0.11,11.72,-1.34,0,0,0,0,0,0,27.76,0.06,-9.96,-1,0,0.09,0.01,43.35,-34.8,-16.05
17413,26.19,998.61,122.61,297.81,-0.88,-96.62,-0.19,11.82,-1.21,-0.19,11.82,-1.21,-0.19,11.82,-1.21,0,0,0,0,0,0,27.95,-0.14,-10.02,-1.15,-0.01,0.12,0.01,43.35,-35.85,-16.05
17455,26.19,998.61,122.61,298.19,-0.94,-96.62,-0.24,11.72,-1.45,-0.24,11.72,-1.45,-0.24,11.72,-1.45,0,0,0,0,0,0,27.52,-0.02,-9.96,-1.05,-0.02,-0.03,0.01,43.35,-35.85,-16.05
17498,26.2,998.61,122.57,298.12,-0.94,-96.69,0.03,11.77,-1.39,0.03,11.77,-1.39,0.03,11.77,-1.39,0,0,0,0,0,0,27.76,-0.2,-9.99,-1.52,-0.01,0.01,0.01,43.35,-35.85,-16.05
17541,26.2,998.61,122.58,298.12,-0.94,-96.69,-0.11,11.7,-1.69,0.19,11.76,-1.69,0.19,11.76,-1.69,0,0,0,0,0,0,27.52,-0.07,-9.98,-1.17,-0.01,0.01,0.01,42.9,-34.2,-16.95
17589,26.2,998.6,122.65,298.12,-0.94,-96.69,-0.05,11.75,-1.57,-0.05,11.75,-1.57,-0.05,11.75,-1.57,0,0,0,0,0,0,27.76,-0.45,-9.96,-1.37,0.01,0.07,0.01,42.9,-34.2,-16.95
17632,26.19,998.61,122.62,298.25,-0.94,-96.69,-0.21,11.73,-1.23,-0.13,11.77,-1.33,-0.13,11.77,-1.33,0,0,0,0,0,0,27.9,-0.3,-9.98,-1.12,0.01,0.04,-0.01,41.1,-34.95,-16.2
17677,26.19,998.61,122.65,298.44,-0.94,-96.62,-0.23,11.76,-1.26,-0.23,11.76,-1.26,-0.23,11.76,-1.26,0,0,0,0,0,0,27.9,-0.03,-10.01,-1.08,0,-0.04,-0.01,41.1,-34.95,-16.2
17721,26.2,998.61,122.6,298.44,-1,-96.62,-0.52,11.76,-1.4,-0.52,11.76,-1.4,-0.52,11.76,-1.4,0,0,0,0,0,0,27.71,-0.14,-10,-0.7,0,-0.07,0,42.75,-34.35,-16.8
17763,26.2,998.62,122.53,298.25,-1,-96.62,0.07,11.66,-1.3,0.07,11.66,-1.3,0.07,11.66,-1.3,0,0,0,0,0,0,27.71,0.21,-9.98,-1.13,-0.01,0.06,0.03,42.75,-34.35,-16.8
17813,26.2,998.62,122.56,298.37,-0.94,-96.69,-0.25,11.73,-1.42,-0.25,11.73,-1.42,-0.25,11.73,-1.42,0,0,0,0,0,0,27.85,-0.59,-9.99,-1.17,-0.04,0.02,0.03,42.9,-33.9,-16.95
17854,26.2,998.62,122.55,298.37,-0.88,-96.75,0.33,11.69,-1.24,0.33,11.69,-1.24,0.33,11.69,-1.24,0,0,0,0,0,0,27.95,-0.31,-10.07,-1.51,-0.02,0.12,0.02,42.9,-33.9,-16.95
17897,26.2,998.62,122.53,298.62,-0.88,-96.75,0.48,11.76,-2.06,0.48,11.76,-2.06,0.48,11.76,-2.06,0,0,0,0,0,0,27.71,-0.3,-10.02,-1.64,0,-0.01,-0.02,42.9,-33.9,-16.95
17939,26.2,998.62,122.51,298.69,-0.94,-96.75,-0.05,11.75,-1.52,-0.05,11.75,-1.52,-0.05,11.75,-1.52,0,0,0,0,0,0,27.71,-0.34,-10.05,-1.31,0.02,0,-0.03,41.55,-35.1,-16.8
17987,26.2,998.62,122.5,298.81,-1,-96.69,-0.48,11.76,-1.47,-0.48,11.76,-1.47,-0.48,11.76,-1.47,0,0,0,0,0,0,27.85,0.24,-9.99,-1.1,0.02,-0.03,-0.01,41.55,-35.1,-16.8
18031,26.2,998.63,122.48,298.75,-1.06,-96.62,-0.24,11.66,-1.07,-0.24,11.66,-1.07,-0.24,11.66,-1.07,0,0,0,0,0,0,27.61,0.04,-9.94,-0.87,0.01,-0.03,0.01,41.55,-33.6,-16.8
18074,26.2,998.63,122.46,298.69,-1.06,-96.62,-0.54,11.72,-1.18,-0.54,11.72,-1.18,-0.54,11.72,-1.18,0,0,0,0,0,0,27.76,0,-9.96,-1.04,-0.02,0.02,0.01,41.55,-33.6,-16.8
18118,26.2,998.62,122.5,298.75,-1.06,-96.62,-0.11,11.73,-1.27,-0.11,11.73,-1.27,-0.11,11.73,-1.27,0,0,0,0,0,0,27.71,-0.3,-9.91,-1.09,-0.03,-0.02,0.02,43.95,-34.65,-16.95
18162,26.2,998.62,122.51,298.69,-1,-96.69,-0.02,11.66,-1.43,-0.02,11.66,-1.43,-0.02,11.66,-1.43,0,0,0,0,0,0,27.57,-0.29,-9.96,-1.35,-0.02,0.11,0.02,43.95,-34.65,-16.95
18213,26.2,998.63,122.46,299.06,-1.06,-96.69,-0.09,11.88,-1.67,-0.09,11.88,-1.67,-0.24,11.83,-1.5,0,0,0,0,0,0,27.71,-0.28,-9.96,-1.21,0,-0.1,-0.01,42.45,-35.4,-17.55
18255,26.2,998.63,122.43,298.81,-1.06,-96.69,-0.19,11.79,-1.32,-0.19,11.79,-1.32,-0.19,11.79,-1.32,0,0,0,0,0,0,27.57,0.15,-10.05,-0.99,0.01,-0.17,0,42.45,-35.4,-17.55
18298,26.2,998.63,122.42,298.31,-1,-96.69,-0.11,11.7,-1.61,-0.11,11.7,-1.61,-0.11,11.7,-1.61,0,0,0,0,0,0,27.57,-0.12,-10.06,-1.36,-0.01,-0.02,0.01,42.45,-35.4,-17.55
18339,26.2,998.62,122.49,298.25,-1,-96.75,-0.36,11.77,-1.36,-0.36,11.77,-1.36,-0.36,11.77,-1.36,0,0,0,0,0,0,27.76,-0.11,-10.02,-1.18,0,0.03,0.01,42.9,-35.4,-15.45
18384,26.2,998.63,122.46,298.31,-1,-96.75,-0.26,11.72,-1.66,-0.24,11.73,-1.69,-0.24,11.73,-1.69,0,0,0,0,0,0,27.9,-0.13,-9.99,-1.35,0.01,0.07,0.01,42.9,-35.4,-15.45
18434,26.2,998.62,122.5,298.56,-1,-96.69,0.01,11.72,-1.2,0,11.74,-1.08,0,11.74,-1.08,0,0,0,0,0,0,27.57,-0.33,-9.96,-1.06,0.01,0.11,0.01,42.45,-34.65,-16.2
18476,26.2,998.62,122.53,298.87,-1.06,-96.69,-0.15,11.7,-1.35,-0.15,11.7,-1.35,-0.15,11.7,-1.35,0,0,0,0,0,0,27.61,-0.11,-9.91,-1.03,0,0.09,0,42.45,-34.65,-16.2
18521,26.19,998.62,122.55,299.12,-1.06,-96.69,-0.11,11.31,-1.1,-0.11,11.31,-1.1,-0.11,11.31,-1.1,0,0,0,0,0,0,27.71,-0.18,-9.54,-1.13,-0.02,0.09,0,42.9,-34.2,-16.5
18565,26.19,998.61,122.64,299.37,-1.06,-96.69,-0.29,11.76,-1.34,-0.84,11.8,-1.42,-0.84,11.8,-1.42,0,0,0,0,0,0,27.71,-0.04,-9.87,-0.92,-0.02,0.02,-0.01,42.9,-34.2,-16.5
18615,26.19,998.6,122.66,299.37,-1.12,-96.75,0.05,11.98,-1.53,-0.28,11.88,-1.66,-0.28,11.88,-1.66,0,0,0,0,0,0,27.76,0,-10.2,-1.67,-0.02,0.04,0.01,42.9,-34.95,-17.55
18656,26.19,998.61,122.62,299.44,-1.12,-96.75,-0.26,11.71,-1.65,-0.26,11.71,-1.65,-0.26,11.71,-1.65,0,0,0,0,0,0,27.71,-0.2,-10.19,-1.62,0,0,0.01,42.9,-34.95,-17.55
18702,26.19,998.61,122.65,299.5,-1.12,-96.75,-0.13,11.79,-1.47,-0.13,11.79,-1.47,-0.13,11.79,-1.47,0,0,0,0,0,0,27.76,-0.37,-9.96,-1.46,0.03,0.03,0,42.9,-34.95,-17.55
18745,26.19,998.61,122.58,299.56,-1.12,-96.69,-0.34,11.67,-1.72,-0.51,11.67,-1.78,-0.51,11.67,-1.78,0,0,0,0,0,0,27.76,-0.21,-9.98,-1.56,0.02,-0.04,-0.01,44.1,-34.05,-16.8
18787,26.19,998.62,122.55,299.56,-1.19,-96.62,-0.02,12.22,-1.09,-0.02,12.22,-1.09,-0.02,12.22,-1.09,0,0,0,0,0,0,27.76,0.45,-9.46,0.41,0.06,0.16,0,44.1,-34.05,-16.8
18837,26.2,998.61,122.6,300,-1.19,-96.44,0.26,11.57,-2.01,0.26,11.57,-2.01,0.26,11.57,-2.01,0,0,0,0,0,0,27.57,-0.51,-10.33,-1.21,0.02,0.01,-0.07,43.2,-34.95,-16.2
18878,26.19,998.61,122.59,300.25,-1.44,-96.37,0.07,11.86,-1.08,0.07,11.86,-1.08,0.07,11.86,-1.08,0,0,0,0,0,0,27.85,-0.24,-9.97,-0.34,0.09,-0.19,-0.17,43.2,-34.95,-16.2
18924,26.19,998.6,122.67,300.12,-1.75,-96.19,-1.08,11.52,-1.34,-1.08,11.52,-1.34,-1.08,11.52,-1.34,0,0,0,0,0,0,27.85,0.46,-9.84,-0.95,-0.02,0.02,-0.05,41.25,-33.6,-17.85
18967,26.19,998.6,122.66,300.31,-1.94,-96.19,-0.29,11.68,-1.6,-0.29,11.68,-1.6,-0.29,11.68,-1.6,0,0,0,0,0,0,27.61,-1.06,-9.83,-2.25,-0.04,-0.21,0.04,41.25,-33.6,-17.85
19017,26.2,998.61,122.58,299.87,-1.81,-96.37,-0.24,11.81,-2.1,-0.62,11.75,-1.21,-0.62,11.75,-1.21,0,0,0,0,0,0,27.57,-1.12,-9.97,-1.92,0,0.1,-0.01,42.75,-34.05,-16.05
19067,26.19,998.61,122.64,300.06,-1.87,-96.31,-0.06,11.62,-1.46,-0.54,11.8,-1.21,-0.54,11.8,-1.21,0,0,0,0,0,0,27.61,-0.07,-10.09,-0.98,0.02,0.09,-0.01,42.75,-34.05,-16.05
19108,26.19,998.61,122.57,300.25,-1.87,-96.31,-0.85,11.83,-1.09,-0.85,11.83,-1.09,-0.85,11.83,-1.09,0,0,0,0,0,0,27.71,0.54,-10.11,-0.87,0.02,0.03,0.01,42.75,-34.05,-16.05
19151,26.19,998.61,122.6,300.37,-1.94,-96.25,-0.67,11.76,-0.72,-0.67,11.76,-0.72,-0.67,11.76,-0.72,0,0,0,0,0,0,27.71,0.97,-9.84,0.44,-0.02,0.08,0.05,42.15,-36.45,-16.2
19193,26.19,998.61,122.59,300.25,-1.81,-96.25,-0.85,11.88,-0.86,-0.85,11.88,-0.86,-0.85,11.88,-0.86,0,0,0,0,0,0,27.61,-0.57,-9.98,-1.5,-0.05,0.16,0.06,42.15,-36.45,-16.2
19241,26.19,998.61,122.6,300.5,-1.75,-96.31,-0.11,11.67,-1.8,-0.11,11.67,-1.8,-0.11,11.67,-1.8,0,0,0,0,0,0,27.71,0.07,-10.03,-1.02,0,-0.13,0.02,41.1,-35.4,-17.25
19284,26.19,998.62,122.53,300.19,-1.69,-96.37,-0.34,11.54,-1.23,-0.34,11.54,-1.23,-0.34,11.54,-1.23,0,0,0,0,0,0,27.85,-0.34,-9.42,-1.14,-0.03,0.03,0.04,41.1,-35.4,-17.25
19327,26.19,998.62,122.48,300.19,-1.62,-96.37,0.52,11.42,-1.78,0.41,11.9,-2.11,0.41,11.9,-2.11,0,0,0,0,0,0,27.85,-0.77,-10.2,-1.93,-0.05,0,0.02,42.75,-35.55,-16.8
19373,26.19,998.62,122.5,300.12,-1.56,-96.5,-0.59,11.04,-1.52,-0.59,11.04,-1.52,-0.59,11.04,-1.52,0,0,0,0,0,0,27.61,2.18,-10.35,0.98,0.07,0.3,-0.03,42.75,-35.55,-16.8
19416,26.19,998.61,122.58,300.69,-1.69,-96.5,0.62,11.49,-1.63,0.62,11.49,-1.63,-1.35,11.05,0,0,0,0,0,0,0,27.57,-1.49,-9.21,-3.02,0.04,0.09,-0.03,43.2,-34.65,-17.55
19467,26.19,998.61,122.61,301,-1.81,-96.37,-0.17,15.96,-0.79,-0.17,15.96,-0.79,-1.3,12.2,-1.38,0,0,0,0,0,0,27.76,0.21,-9.51,-0.45,0.02,-0.12,-0.02,43.2,-34.65,-17.55
19509,26.19,998.61,122.6,300.94,-1.81,-96.31,-0.42,11.45,-1.35,-0.42,11.45,-1.35,-0.42,11.45,-1.35,0,0,0,0,0,0,27.85,0.79,-9.63,-0.94,-0.01,0.03,0,43.2,-34.65,-17.55
19550,26.19,998.61,122.59,301.06,-1.87,-96.31,-0.31,11.56,-1.19,-0.31,11.56,-1.19,-0.31,11.56,-1.19,0,0,0,0,0,0,27.71,0.33,-9.95,-0.67,-0.01,-0.06,0.01,42,-33.6,-16.35
19593,26.19,998.61,122.58,300.94,-1.81,-96.31,-0.89,11.62,-1.47,-0.89,11.62,-1.47,-0.89,11.62,-1.47,0,0,0,0,0,0,27.76,0.05,-10.06,-1.06,-0.01,-0.03,0.03,42,-33.6,-16.35
19638,26.19,998.62,122.56,300.81,-1.75,-96.37,-0.23,11.51,-1.36,0.11,11.66,-1.26,0.11,11.66,-1.26,0,0,0,0,0,0,27.57,-0.07,-10.13,-1.92,-0.01,0.01,0.05,41.85,-35.4,-17.25
19689,26.19,998.63,122.47,300.81,-1.69,-96.37,-0.24,11.85,-1.61,0,11.73,-1.59,0,11.73,-1.59,0,0,0,0,0,0,27.71,-0.26,-10.01,-1.15,0.01,0.06,0.02,41.85,-35.4,-17.25
19730,26.19,998.63,122.48,300.81,-1.56,-96.37,-0.16,11.79,-1.4,-0.16,11.79,-1.4,-0.16,11.79,-1.4,0,0,0,0,0,0,27.61,-0.39,-10,-0.96,0.02,-0.03,0.01,41.85,-35.4,-17.25
19776,26.19,998.62,122.51,300.75,-1.56,-96.31,-0.09,11.71,-1.29,-0.09,11.71,-1.29,-0.09,11.71,-1.29,0,0,0,0,0,0,27.76,-0.11,-9.91,-1.21,0.01,0,0.02,41.85,-35.4,-17.25
19820,26.19,998.62,122.49,300.75,-1.56,-96.31,-0.28,11.78,-1.72,-0.28,11.78,-1.72,-0.28,11.78,-1.72,0,0,0,0,0,0,27.71,-0.14,-9.88,-1.35,0,0.16,0.04,41.85,-35.4,-17.25
19860,26.19,998.62,122.52,300.94,-1.5,-96.31,-0.36,11.94,-1.46,-0.36,11.94,-1.46,-0.36,11.94,-1.46,0,0,0,0,0,0,27.71,0.04,-10.06,-1.07,0.02,0,0.05,41.85,-35.4,-17.25
19909,26.19,998.62,122.57,301,-1.37,-96.25,-0.29,11.16,-1.07,-0.29,11.16,-1.07,-0.35,11.86,-1.12,0,0,0,0,0,0,27.71,0.25,-10.23,-1.18,0.02,0.22,0.04,41.85,-35.4,-17.25
19950,26.19,998.61,122.6,301.37,-1.37,-96.19,-0.45,12.01,-1.51,-0.45,12.01,-1.51,-0.45,12.01,-1.51,0,0,0,0,0,0,27.37,0.12,-10.37,-1.08,0.01,0.09,0.03,41.85,-35.4,-17.25
19994,26.19,998.61,122.6,301.62,-1.31,-96.12,-0.11,11.8,-1.13,-0.11,11.8,-1.13,-0.11,11.8,-1.13,0,0,0,0,0,0,27.85,-0.16,-9.94,-0.85,0.04,0.15,0.05,41.85,-35.4,-17.25
20036,26.19,998.61,122.61,301.87,-1.25,-96,-0.4,11.85,-1.4,-0.4,11.85,-1.4,-0.4,11.85,-1.4,0,0,0,0,0,0,27.76,-0.16,-9.97,-1.31,0.02,0.02,0.02,41.85,-35.4,-17.25
20086,26.2,998.62,122.52,301.94,-1.19,-95.94,0.05,11.73,-1.22,0.05,11.73,-1.22,0.05,11.73,-1.22,0,0,0,0,0,0,27.85,-0.47,-9.9,-0.87,-0.01,0.07,0.03,41.85,-35.4,-17.25
20130,26.19,998.61,122.61,302.06,-1.19,-95.94,-0.09,11.39,-1.33,-0.35,11.12,-1.34,-0.35,11.12,-1.34,0,0,0,0,0,0,27.76,0.33,-8.92,-1.21,-0.05,0.29,0.01,41.85,-35.4,-17.25
20174,26.19,998.62,122.55,302.69,-1.25,-96,0.03,11.1,-1.03,0.03,11.1,-1.03,0.03,11.1,-1.03,0,0,0,0,0,0,27.9,-0.39,-9.2,-0.79,-0.1,0.4,0,41.85,-35.4,-17.25
20220,26.19,998.62,122.54,304,-1.37,-96.25,0.02,12.18,-0.85,0.06,11.15,-0.83,0.06,11.15,-0.83,0,0,0,0,0,0,27.52,0.76,-11.15,-1.81,-0.05,0.61,-0.01,41.85,-35.4,-17.25
20262,26.19,998.62,122.51,305.94,-1.62,-96.19,0.07,12.87,-2.48,0.07,12.87,-2.48,0.07,12.87,-2.48,0,0,0,0,0,0,27.85,-0.79,-11.34,0.03,-0.03,0.17,-0.07,41.85,-35.4,-17.25
20310,26.19,998.63,122.44,306.5,-1.81,-96.25,-1.15,11.55,-1.36,-0.69,11.75,-1.16,-0.69,11.75,-1.16,0,0,0,0,0,0,27.76,0.24,-9.62,0.27,0.02,0.44,0,41.85,-35.4,-17.25
20351,26.19,998.63,122.41,307.44,-1.94,-96.19,-0.79,11.58,-1.01,-0.68,11.43,-1.36,-0.68,11.43,-1.36,0,0,0,0,0,0,28.04,0.85,-9.71,-1.42,0,0.18,-0.01,41.85,-35.4,-17.25
20394,26.19,998.63,122.45,308.31,-2,-96.19,-0.53,11.31,-2.2,-0.53,11.31,-2.2,-0.53,11.31,-2.2,0,0,0,0,0,0,27.71,0.39,-10.81,-0.88,0.02,-0.08,0.02,41.85,-35.4,-17.25
20439,26.19,998.62,122.5,308.19,-1.94,-96.19,-0.39,11.31,-1.13,-0.39,11.31,-1.13,-0.39,11.31,-1.13,0,0,0,0,0,0,27.85,-0.17,-9.45,-0.39,-0.02,-0.14,0.03,41.85,-35.4,-17.25
20482,26.19,998.62,122.52,308.06,-1.87,-96.12,0.02,12.41,-0.77,0.02,12.41,-0.77,0.02,12.41,-0.77,0,0,0,0,0,0,27.71,-0.58,-9.85,-0.79,-0.02,0.05,0.03,41.85,-35.4,-17.25
20532,26.19,998.63,122.44,308.12,-1.81,-96.19,0.17,11.83,-1.32,-0.17,11.68,-1.63,-0.17,11.68,-1.63,0,0,0,0,0,0,27.9,-0.34,-10.1,-1.54,-0.02,-0.12,0,41.85,-35.4,-17.25
20573,26.19,998.63,122.45,308.06,-1.81,-96.19,0.04,11.86,-1.06,0.04,11.86,-1.06,0.04,11.86,-1.06,0,0,0,0,0,0,27.9,-0.71,-9.95,-1.16,-0.01,0.01,0.01,41.85,-35.4,-17.25
20620,26.19,998.62,122.53,308.06,-1.81,-96.25,-0.11,11.71,-1.77,-0.11,11.71,-1.77,-0.11,11.71,-1.77,0,0,0,0,0,0,27.61,0.3,-9.89,-1.42,-0.01,0.03,-0.01,44.7,-34.2,-18
20662,26.19,998.62,122.52,308.19,-1.87,-96.25,-0.73,11.67,-0.35,1.21,11.84,-1.34,1.21,11.84,-1.34,0,0,0,0,0,0,27.85,-1.1,-9.87,-0.78,0,0.15,-0.03,44.7,-34.2,-18
20710,26.19,998.62,122.49,308.5,-2,-96.25,-1.49,11.38,-1.69,-1.49,11.38,-1.69,-1.49,11.38,-1.69,0,0,0,0,0,0,27.85,-0.25,-9.62,-1.03,-0.01,-0.01,-0.01,44.7,-34.2,-18
20752,26.19,998.62,122.5,308.56,-2.06,-96.25,-0.66,10.72,-1.27,-0.61,9.89,-2.29,-0.61,9.89,-2.29,0,0,0,0,0,0,27.61,0.4,-8.39,-1.27,0.02,0.45,0.09,44.25,-34.65,-18.75
20793,26.19,998.63,122.43,309.19,-2,-96.19,-0.61,13.11,-1.71,-0.61,13.11,-1.71,-0.61,13.11,-1.71,0,0,0,0,0,0,27.71,0.6,-11.23,-1.59,0,0.62,0.05,44.25,-34.65,-18.75
20839,26.19,998.64,122.39,311,-2.06,-96.06,0.02,9.49,-1.57,0.02,9.49,-1.57,0.02,9.49,-1.57,0,0,0,0,0,0,27.61,-0.27,-11.17,-0.13,0.08,0.39,0.01,43.35,-33.6,-18.15
20883,26.19,998.64,122.34,312,-2.12,-95.87,-0.67,13.36,-3.29,-0.67,13.36,-3.29,-0.67,13.36,-3.29,0,0,0,0,0,0,27.85,0.75,-9.81,-0.72,0.03,0.19,0.05,43.35,-33.6,-18.15
20933,26.19,998.64,122.34,312.56,-2.06,-95.75,-0.38,10.5,-0.58,0.42,11.2,-1.59,0.42,11.2,-1.59,0,0,0,0,0,0,27.85,0.28,-9.22,-0.71,-0.01,0.15,0.06,45.15,-33.6,-19.2
20974,26.19,998.65,122.27,312.87,-2,-95.75,-0.07,10.91,-0.76,-0.07,10.91,-0.76,-0.07,10.91,-0.76,0,0,0,0,0,0,27.85,-0.52,-9.38,-1.22,0.01,0.31,0.03,45.15,-33.6,-19.2
21020,26.19,998.66,122.2,313.81,-2,-95.69,-0.22,12.73,-1.63,-0.22,12.73,-1.63,-0.22,12.73,-1.63,0,0,0,0,0,0,27.52,0.11,-9.69,-1.4,-0.02,0.25,0.04,44.85,-34.05,-21.75
21062,26.19,998.67,122.07,314.37,-2,-95.69,-0.07,11.35,-1.04,-0.07,11.35,-1.04,0.2,11.49,-1.19,0,0,0,0,0,0,27.85,-0.44,-9.86,-0.94,-0.02,0.22,0.03,44.85,-34.05,-21.75
21103,26.19,998.68,121.98,314.94,-2,-95.69,-0.05,11.37,-1.48,-0.16,11.6,-1.3,-0.16,11.6,-1.3,0,0,0,0,0,0,27.71,-0.21,-10.25,-1.5,0,0.18,-0.01,44.85,-34.05,-21.75
21159,26.19,998.69,121.9,315.56,-2.06,-95.69,-0.27,11.25,-1.45,-0.27,11.25,-1.45,-0.27,11.25,-1.45,0,0,0,0,0,0,27.76,0.04,-9.99,-0.95,0.01,0.08,0.01,46.35,-34.35,-19.2
21199,26.19,998.7,121.85,315.87,-2.06,-95.69,-0.33,11.93,-1.53,-0.33,11.93,-1.53,-0.33,11.93,-1.53,0,0,0,0,0,0,27.76,0.01,-9.83,-1.33,0.01,0.16,0.01,46.35,-34.35,-19.2
21244,26.19,998.7,121.83,316.25,-2.12,-95.62,-0.22,11.52,-1.39,-0.22,11.52,-1.39,-0.22,11.52,-1.39,0,0,0,0,0,0,27.85,0.09,-10.32,-1.09,0.01,0.13,0,45.45,-33.9,-20.4
21287,26.19,998.71,121.76,316.69,-2.19,-95.56,-0.44,12.74,-1.25,-0.44,12.74,-1.25,-0.44,12.74,-1.25,0,0,0,0,0,0,27.71,0.02,-10.49,-0.93,0.01,0.08,0.01,45.45,-33.9,-20.4
21337,26.19,998.71,121.74,316.94,-2.19,-95.56,-0.24,12.11,-1.17,-0.24,12.11,-1.17,-0.24,12.11,-1.17,0,0,0,0,0,0,27.9,0.02,-10.3,-1.1,0,0.06,0.01,45.45,-34.65,-20.1
21380,26.19,998.7,121.85,317.06,-2.19,-95.56,-0.49,11.88,-1.14,-0.49,11.88,-1.14,-0.49,11.88,-1.14,0,0,0,0,0,0,27.9,0.14,-9.84,-0.96,-0.01,0.02,0.01,45.45,-34.65,-20.1
21424,26.19,998.68,122,317.12,-2.19,-95.5,-0.5,10.81,-1.18,-0.45,10.88,-1.27,-0.45,10.88,-1.27,0,0,0,0,0,0,27.57,-0.01,-8.94,-1.05,-0.01,0.05,0.02,44.7,-34.65,-20.1
21469,26.19,998.67,122.07,317.25,-2.19,-95.5,-0.18,11.08,-1.33,-0.18,11.08,-1.33,-0.18,11.08,-1.33,0,0,0,0,0,0,27.71,-0.03,-9.5,-0.88,-0.01,0.09,0,44.7,-34.65,-20.1
21509,26.19,998.67,122.12,317.5,-2.19,-95.5,-0.59,11.88,-1.52,-0.59,11.88,-1.52,-0.59,11.88,-1.52,0,0,0,0,0,0,27.85,0.48,-10.18,-1.35,-0.01,0.2,0,44.7,-34.65,-20.1
21560,26.19,998.67,122.13,317.87,-2.25,-95.5,-0.48,13.11,-1.47,-0.48,13.11,-1.47,-0.48,13.11,-1.47,0,0,0,0,0,0,27.61,0.06,-10.27,-0.9,0,0.03,0.04,45.45,-34.65,-21.45
21601,26.19,998.66,122.17,317.94,-2.19,-95.5,-0.09,11.87,-1.03,-0.09,11.87,-1.03,-0.09,11.87,-1.03,0,0,0,0,0,0,27.61,-0.13,-10.49,-1.36,0,0.04,0.01,45.45,-34.65,-21.45
21646,26.19,998.66,122.21,318,-2.19,-95.5,-0.45,11.62,-1.13,-0.45,11.62,-1.13,-0.45,11.62,-1.13,0,0,0,0,0,0,27.85,-0.15,-9.78,-0.91,-0.01,0,0.02,46.35,-36.3,-20.7
21687,26.19,998.65,122.3,318,-2.19,-95.5,-0.35,11.73,-1.22,-0.35,11.73,-1.22,-0.35,11.73,-1.22,0,0,0,0,0,0,27.95,-0.05,-9.85,-1.19,-0.02,0.07,0.03,46.35,-36.3,-20.7
21730,26.19,998.65,122.29,318.12,-2.12,-95.56,-0.34,11.67,-1.61,-0.34,11.67,-1.61,-0.34,11.67,-1.61,0,0,0,0,0,0,27.85,0.07,-9.84,-1.36,0.01,0.16,0.02,46.2,-33.9,-20.1
21777,26.19,998.63,122.4,318.62,-2.12,-95.56,-0.46,11.86,-1.48,-0.46,11.86,-1.48,-0.46,11.86,-1.48,0,0,0,0,0,0,27.76,-0.01,-10.04,-1.06,0.01,0.16,0.03,46.2,-33.9,-20.1
21818,26.19,998.63,122.41,319,-2.12,-95.56,-0.39,11.97,-1.27,-0.39,11.97,-1.27,-0.39,11.97,-1.27,0,0,0,0,0,0,27.52,0.23,-9.96,-1.16,0.01,0.08,0.03,46.2,-33.9,-20.1
21861,26.19,998.63,122.43,319.19,-2.06,-95.56,0.19,11.62,-1.39,0.19,11.62,-1.39,0.19,11.62,-1.39,0,0,0,0,0,0,27.9,-0.16,-9.83,-0.97,0,0.03,0.03,45.45,-33.45,-20.4
21903,26.19,998.62,122.49,319.19,-2.06,-95.5,-0.22,11.82,-1.04,-0.22,11.82,-1.04,-0.22,11.82,-1.04,0,0,0,0,0,0,27.76,-0.17,-10.06,-0.91,0,-0.05,0.01,45.45,-33.45,-20.4
21946,26.19,998.62,122.52,319.12,-2,-95.5,-0.25,11.7,-1.36,0.09,11.61,-1.41,0.09,11.61,-1.41,0,0,0,0,0,0,27.76,-0.34,-9.84,-1.1,-0.01,0.04,0.02,45.75,-34.65,-20.4
21996,26.2,998.61,122.57,319.19,-2,-95.56,-0.08,11.35,-1.17,-0.11,11.45,-1.19,-0.11,11.45,-1.19,0,0,0,0,0,0,27.95,-0.07,-10.05,-1.14,-0.01,-0.04,0,45.75,-34.65,-20.4
22038,26.2,998.62,122.55,319.06,-2,-95.56,-0.18,11.5,-1.54,-0.18,11.5,-1.54,-0.18,11.5,-1.54,0,0,0,0,0,0,27.52,0.07,-9.61,-1.36,-0.01,-0.02,0.01,45.15,-35.55,-21
22085,26.19,998.61,122.57,319,-2,-95.56,-0.29,11.76,-1.45,-0.29,11.76,-1.45,-0.29,11.76,-1.45,0,0,0,0,0,0,27.42,-0.05,-10.17,-1.02,0,-0.04,0,45.15,-35.55,-21
22127,26.19,998.62,122.53,318.87,-2,-95.56,-0.4,11.54,-1.49,-0.4,11.54,-1.49,-0.4,11.54,-1.49,0,0,0,0,0,0,27.71,0.1,-9.7,-1.33,0.01,-0.03,0,46.2,-35.4,-20.4
22177,26.19,998.62,122.52,318.81,-2,-95.56,-0.27,10.76,-0.98,-0.24,11.24,-1.01,-0.24,11.24,-1.01,0,0,0,0,0,0,27.61,-0.18,-10.37,-0.79,-0.01,-0.06,0.02,46.2,-35.4,-20.4
22219,26.19,998.63,122.46,318.62,-1.94,-95.56,-0.35,12.26,-1.18,-0.35,12.26,-1.18,-0.35,12.26,-1.18,0,0,0,0,0,0,27.85,0.03,-10.15,-0.92,-0.02,-0.04,0,46.2,-35.4,-20.4
22259,26.19,998.64,122.39,318.56,-1.94,-95.56,-0.3,12.64,-1.38,-0.3,12.64,-1.38,-0.3,12.64,-1.38,0,0,0,0,0,0,27.95,0.11,-10.87,-1.29,-0.03,-0.06,0.01,45,-35.4,-20.1
22302,26.19,998.64,122.36,318.44,-1.94,-95.62,-0.13,12.04,-1.31,-0.13,12.04,-1.31,-0.13,12.04,-1.31,0,0,0,0,0,0,27.71,-0.19,-10.03,-1.24,-0.02,0.12,0,45,-35.4,-20.1
22347,26.19,998.65,122.3,318.69,-1.94,-95.62,-0.24,11.87,-1.64,-0.27,12.19,-1.66,-0.27,12.19,-1.66,0,0,0,0,0,0,27.76,-0.14,-10.72,-1.23,-0.02,-0.06,-0.01,44.7,-35.4,-21.45
22397,26.19,998.64,122.4,318.62,-1.94,-95.69,-0.07,12.1,-1.66,-0.13,12.23,-1.62,-0.13,12.23,-1.62,0,0,0,0,0,0,27.76,-0.59,-10.07,-1.04,0,0.01,-0.02,44.7,-35.4,-21.45
22439,26.19,998.63,122.43,318.81,-2,-95.69,-0.47,11.6,-1,-0.47,11.6,-1,-0.47,11.6,-1,0,0,0,0,0,0,28.04,0.16,-9.88,-1.4,-0.01,-0.02,-0.01,45.45,-34.95,-21.15
22485,26.19,998.63,122.45,318.75,-2,-95.69,-0.17,11.77,-1.17,-0.17,11.77,-1.17,-0.17,11.77,-1.17,0,0,0,0,0,0,27.71,-0.02,-9.93,-0.94,0,0.03,0,45.45,-34.95,-21.15
22528,26.19,998.63,122.42,318.81,-2,-95.69,-0.65,11.71,-1.59,-0.65,11.71,-1.59,-0.65,11.71,-1.59,0,0,0,0,0,0,27.71,0.24,-9.87,-1.42,0.01,-0.02,0.01,45.45,-33.9,-20.85
22569,26.19,998.63,122.42,318.87,-2,-95.69,-0.4,11.82,-1.18,-0.4,11.82,-1.18,-0.4,11.82,-1.18,0,0,0,0,0,0,27.57,0.07,-10.07,-0.81,0,-0.01,0.01,45.45,-33.9,-20.85
22619,26.19,998.62,122.49,318.81,-2,-95.69,-0.41,11.76,-1.47,-0.41,11.76,-1.47,-0.41,11.76,-1.47,0,0,0,0,0,0,27.71,0.13,-9.97,-1.17,0,-0.01,0.02,45.45,-33.9,-20.85
22660,26.19,998.62,122.51,318.75,-2,-95.69,-0.29,11.73,-1.06,-0.29,11.73,-1.06,-0.29,11.73,-1.06,0,0,0,0,0,0,27.76,-0.14,-9.96,-0.96,-0.01,0,0.02,45.15,-33.3,-22.8
22704,26.19,998.62,122.53,318.69,-2,-95.69,-0.35,11.73,-0.87,-0.35,11.73,-0.87,-0.35,11.73,-0.87,0,0,0,0,0,0,27.85,-0.14,-9.9,-1.06,-0.02,-0.03,0.02,45.15,-33.3,-22.8
22748,26.19,998.63,122.46,318.62,-2,-95.69,0.01,11.78,-1.51,0.01,11.78,-1.51,0.09,11.82,-1.36,0,0,0,0,0,0,27.76,-0.24,-9.95,-0.96,-0.02,-0.06,0.01,45,-36,-21.45
22798,26.19,998.63,122.44,318.5,-1.94,-95.75,-0.32,11.77,-1.69,-0.27,11.72,-1.57,-0.27,11.72,-1.57,0,0,0,0,0,0,27.71,-0.6,-10.03,-0.79,-0.01,-0.1,-0.01,45,-36,-21.45
22840,26.19,998.63,122.43,318.31,-1.94,-95.81,0.36,11.79,-0.9,0.36,11.79,-0.9,0.36,11.79,-0.9,0,0,0,0,0,0,27.37,-0.17,-10,-0.85,-0.02,-0.64,-0.03,45.9,-33.6,-19.95
22881,26.19,998.63,122.46,316.75,-1.87,-95.87,-0.6,11.66,-1.23,-0.6,11.66,-1.23,-0.6,11.66,-1.23,0,0,0,0,0,0,27.71,-0.03,-9.86,-1.02,-0.03,-0.39,-0.02,45.9,-33.6,-19.95
22928,26.19,998.63,122.46,316.12,-1.87,-96,-0.41,11.75,-1.24,-0.41,11.75,-1.24,-0.5,11.8,-1.3,0,0,0,0,0,0,27.61,0.26,-9.89,-1.06,-0.04,0,-0.01,45.9,-33.6,-19.95
22979,26.19,998.63,122.4,316.19,-1.94,-96.06,-0.43,11.62,-1.66,-0.21,11.63,-1.76,-0.21,11.63,-1.76,0,0,0,0,0,0,27.9,-0.18,-9.83,-1.62,-0.03,-0.08,0,45.15,-35.1,-20.25
23032,26.19,998.64,122.37,316,-1.87,-96.12,-0.67,11.78,-1.63,-0.48,11.73,-1.56,-0.48,11.73,-1.56,0,0,0,0,0,0,27.71,0.12,-10.01,-1.29,0,-0.02,0.01,46.5,-34.2,-21.15
23073,26.19,998.63,122.4,316,-1.87,-96.25,-0.37,11.76,-1.63,-0.37,11.76,-1.63,-0.37,11.76,-1.63,0,0,0,0,0,0,27.9,0,-10.01,-1.4,0.01,-0.02,0.01,46.5,-34.2,-21.15
23116,26.19,998.63,122.43,315.94,-1.87,-96.25,-0.47,11.77,-1.49,-0.47,11.77,-1.49,-0.47,11.77,-1.49,0,0,0,0,0,0,27.71,0.15,-9.96,-1.22,0.02,-0.09,0.01,46.5,-34.2,-21.15
23158,26.19,998.62,122.52,315.75,-1.81,-96.25,-0.24,11.76,-1.4,-0.24,11.76,-1.4,-0.12,11.68,-1.32,0,0,0,0,0,0,27.85,-0.4,-9.87,-0.98,0.02,-0.01,0.02,45.75,-33.9,-20.1
23201,26.19,998.63,122.46,315.69,-1.81,-96.19,-0.58,11.76,-1.29,-0.58,11.76,-1.29,-0.58,11.76,-1.29,0,0,0,0,0,0,27.71,-0.01,-10.01,-1.06,0.01,-0.06,0.02,45.75,-33.9,-20.1
23249,26.19,998.63,122.42,315.56,-1.75,-96.19,-0.07,11.9,-1.33,-0.07,11.9,-1.33,0.01,11.84,-1.58,0,0,0,0,0,0,27.61,-0.4,-10.07,-1.2,0,0.09,0.01,44.55,-35.55,-19.5
23292,26.19,998.63,122.4,315.75,-1.75,-96.12,-0.21,11.66,-1.42,-0.21,11.66,-1.42,-0.21,11.66,-1.42,0,0,0,0,0,0,27.61,-0.07,-9.95,-1.24,0,0.15,-0.01,44.55,-35.55,-19.5
23335,26.19,998.62,122.52,316.12,-1.81,-96.12,-0.83,11.59,-1.54,-0.83,11.59,-1.54,-0.83,11.59,-1.54,0,0,0,0,0,0,27.61,-0.88,-9.7,-0.98,0.01,0.18,0,46.2,-33.45,-19.8
23380,26.19,998.61,122.57,316.5,-1.81,-96.12,0,11.9,-1.83,0,11.9,-1.83,0.16,11.51,-2.08,0,0,0,0,0,0,28.09,-0.86,-10.25,-0.3,0.01,-0.09,-0.02,46.2,-33.45,-19.8
23430,26.19,998.62,122.53,316.69,-1.87,-96.12,-0.56,11.62,-1.26,-1.06,11.76,-1.11,-1.06,11.76,-1.11,0,0,0,0,0,0,27.71,-0.3,-10.09,-1.13,-0.02,-0.02,-0.01,46.2,-33.45,-19.8
23472,26.19,998.63,122.48,316.75,-1.87,-96.12,-1.19,11.77,-0.86,-1.19,11.77,-0.86,-1.19,11.77,-0.86,0,0,0,0,0,0,27.85,-0.4,-10.06,-1.81,-0.01,0.1,-0.01,45.6,-34.8,-21
23514,26.19,998.63,122.43,316.81,-1.94,-96.12,-1.35,11.74,-0.87,-1.35,11.74,-0.87,-1.35,11.74,-0.87,0,0,0,0,0,0,27.76,1.35,-9.98,-0.76,-0.03,-0.14,0.06,45.6,-34.8,-21
23556,26.19,998.62,122.48,316.44,-1.81,-96.19,0.66,11.67,-1.63,0.66,11.67,-1.63,0.66,11.67,-1.63,0,0,0,0,0,0,27.85,-0.66,-9.75,-0.86,-0.01,-0.02,0.01,44.7,-33.9,-21.9
23600,26.19,998.63,122.46,316.37,-1.81,-96.25,-0.43,11.69,-1.49,-0.43,11.69,-1.49,-0.73,11.74,-1.08,0,0,0,0,0,0,27.57,0.11,-9.9,-1.15,-0.01,-0.03,0,44.7,-33.9,-21.9
23651,26.19,998.62,122.49,316.25,-1.81,-96.25,-0.22,11.74,-1.79,-0.22,11.74,-1.79,-0.11,11.86,-1.47,0,0,0,0,0,0,27.61,0.15,-10.05,-1.85,0.01,-0.14,0,46.8,-34.2,-22.95
23693,26.19,998.63,122.47,316,-1.81,-96.25,-0.58,11.79,-1.54,-0.58,11.79,-1.54,-0.58,11.79,-1.54,0,0,0,0,0,0,27.9,-0.22,-10.08,-1.54,0.01,-0.1,0.01,46.8,-34.2,-22.95
23740,26.19,998.63,122.45,315.62,-1.75,-96.25,0,11.71,-1.2,0,11.71,-1.2,0,11.71,-1.2,0,0,0,0,0,0,27.52,-0.33,-10.02,-1.12,0,-0.2,0.01,45.45,-34.95,-20.1
23782,26.19,998.63,122.48,315.12,-1.69,-96.25,-0.03,11.72,-1.27,-0.03,11.72,-1.27,-0.03,11.72,-1.27,0,0,0,0,0,0,27.57,-0.23,-9.98,-0.82,0,-0.66,0.01,45.45,-34.95,-20.1
23824,26.19,998.62,122.51,313.62,-1.5,-96.25,-0.47,11.73,-1.38,-0.47,11.73,-1.38,-0.47,11.73,-1.38,0,0,0,0,0,0,27.76,-0.14,-9.97,-1.25,-0.01,-0.15,0.01,45.45,-34.95,-20.1
23872,26.19,998.62,122.5,312.94,-1.44,-96.31,0.45,11.76,-1.25,0,11.74,-1.14,0,11.74,-1.14,0,0,0,0,0,0,27.85,0.5,-10.03,-0.84,-0.02,-0.79,0,44.85,-35.1,-19.5
23914,26.19,998.63,122.42,311,-1.25,-96.37,-0.25,11.72,-1.69,-0.25,11.72,-1.69,-0.25,11.72,-1.69,0,0,0,0,0,0,27.85,-0.32,-9.89,-1.54,-0.01,-0.08,0.01,44.85,-35.1,-19.5
23956,26.19,998.63,122.43,310.75,-1.25,-96.44,-0.45,11.82,-1.64,-0.45,11.82,-1.64,-0.45,11.82,-1.64,0,0,0,0,0,0,27.61,0.09,-10.13,-1.24,0,-0.16,0.01,44.7,-34.95,-20.4
24000,26.19,998.63,122.4,310.37,-1.19,-96.44,0.05,11.72,-1.57,0.05,11.72,-1.57,0.05,11.72,-1.57,0,0,0,0,0,0,27.61,-0.32,-9.94,-1.6,0.02,-0.14,0.01,44.7,-34.95,-20.4
24051,26.19,998.63,122.4,309.94,-1.19,-96.44,-0.31,11.73,-1.37,-0.31,11.73,-1.37,-0.31,11.73,-1.37,0,0,0,0,0,0,27.95,-0.24,-10.01,-0.97,0.02,-0.11,0.01,44.55,-35.85,-18.15
24094,26.19,998.63,122.42,309.62,-1.12,-96.37,-0.22,11.75,-1.17,-0.22,11.75,-1.17,-0.22,11.75,-1.17,0,0,0,0,0,0,27.9,0.09,-10.28,-1.71,0.01,0.11,0.01,44.55,-35.85,-18.15
24135,26.19,998.63,122.44,309.87,-1.12,-96.37,0.04,11.73,-1.46,0.04,11.73,-1.46,0.04,11.73,-1.46,0,0,0,0,0,0,27.61,-0.3,-10,-1.07,-0.01,0.02,0,44.55,-35.85,-18.15
24182,26.19,998.63,122.43,310,-1.12,-96.37,-0.2,11.72,-1.35,-0.2,11.72,-1.35,-0.31,11.81,-1.39,0,0,0,0,0,0,27.76,0.21,-10.22,-1.14,-0.01,-0.15,-0.01,43.65,-34.2,-18.3
24222,26.19,998.62,122.49,309.75,-1.12,-96.37,-0.11,11.75,-1.64,-0.11,11.75,-1.64,0.04,11.74,-1.62,0,0,0,0,0,0,27.9,-0.39,-10.05,-1.32,0.01,-0.57,0,43.65,-34.2,-18.3
24270,26.19,998.62,122.5,308.25,-1,-96.37,-0.17,11.75,-1.5,-0.17,11.75,-1.5,-0.17,11.75,-1.5,0,0,0,0,0,0,27.85,0.14,-10.03,-1.02,0.01,-0.51,-0.01,44.25,-35.4,-20.1
24311,26.19,998.63,122.45,306.69,-0.81,-96.37,-0.77,11.76,-1.35,-0.77,11.76,-1.35,-0.77,11.76,-1.35,0,0,0,0,0,0,27.71,0.26,-10.04,-1.16,-0.01,0.24,0,44.25,-35.4,-20.1
24355,26.19,998.63,122.47,306.69,-0.81,-96.37,-0.2,11.73,-1.24,-0.2,11.73,-1.24,-0.2,11.73,-1.24,0,0,0,0,0,0,27.61,0.1,-10,-1.34,-0.02,0.58,0.01,44.25,-34.65,-19.35
24396,26.19,998.62,122.51,308.5,-1.06,-96.44,-0.57,11.66,-1.57,-0.57,11.66,-1.57,-0.57,11.66,-1.57,0,0,0,0,0,0,27.76,-1.42,-10.17,-0.95,-0.02,0.75,0.02,44.25,-34.65,-19.35
24438,26.19,998.62,122.5,310.31,-1.19,-96.37,-0.21,11.71,-1.54,-0.21,11.71,-1.54,-0.21,11.71,-1.54,0,0,0,0,0,0,27.76,0.33,-9.89,-1.62,-0.01,0.62,0,45.15,-34.65,-19.35
24489,26.19,998.63,122.45,312.25,-1.37,-96.37,-0.37,11.82,-1.7,-0.37,11.82,-1.7,-0.37,11.82,-1.7,0,0,0,0,0,0,27.9,-0.52,-10.03,-0.81,-0.01,0.7,0.02,45.15,-34.05,-19.5
24534,26.19,998.63,122.44,314,-1.56,-96.31,0.24,11.7,-1.75,0.24,11.7,-1.75,0.65,11.9,-1.78,0,0,0,0,0,0,27.76,-0.91,-10.05,-0.83,0.01,-0.16,0.01,45.15,-34.05,-19.5
24576,26.19,998.63,122.44,314.5,-1.62,-96.25,-1,11.83,-1.36,-1,11.83,-1.36,-1,11.83,-1.36,0,0,0,0,0,0,27.9,-0.12,-10.02,-0.76,0,-0.21,-0.01,45.75,-35.4,-20.85
24618,26.19,998.63,122.48,313.94,-1.5,-96.31,-0.38,11.76,-1,-0.38,11.76,-1,-0.38,11.76,-1,0,0,0,0,0,0,27.76,0.02,-9.98,-1.1,-0.02,-0.21,0.02,45.75,-35.4,-20.85
24666,26.19,998.62,122.53,313.5,-1.5,-96.31,-0.3,11.72,-1.12,-0.3,11.72,-1.12,-0.3,11.72,-1.12,0,0,0,0,0,0,27.61,0.07,-10.02,-0.97,-0.01,-0.09,0.01,44.85,-33.3,-20.25
24708,26.19,998.62,122.49,313.25,-1.44,-96.31,-0.81,11.76,-1.36,-0.81,11.76,-1.36,-0.81,11.76,-1.36,0,0,0,0,0,0,27.85,-0.2,-9.85,-1.35,-0.02,-0.12,0.02,44.85,-33.3,-20.25
24750,26.19,998.62,122.51,313,-1.44,-96.37,0,11.77,-1.48,0,11.77,-1.48,0,11.77,-1.48,0,0,0,0,0,0,27.76,0,-9.91,-1.17,-0.01,0.02,0.01,44.85,-33.3,-20.25
24796,26.19,998.62,122.54,312.94,-1.44,-96.37,-0.36,11.72,-1.68,-0.36,11.72,-1.68,-0.36,11.72,-1.68,0,0,0,0,0,0,27.9,-0.3,-9.96,-1.27,0,-0.02,0.01,44.85,-33.3,-20.25
24837,26.19,998.61,122.59,312.87,-1.37,-96.44,-0.1,11.77,-1.44,-0.1,11.77,-1.44,-0.1,11.77,-1.44,0,0,0,0,0,0,27.71,-0.28,-9.99,-1.2,0.01,0.1,0,44.85,-33.3,-20.25
24886,26.19,998.62,122.51,313.06,-1.37,-96.44,-0.08,11.73,-1.69,-0.08,11.73,-1.69,-0.08,11.73,-1.69,0,0,0,0,0,0,27.37,-0.37,-9.96,-1.45,0.01,0.06,-0.01,44.85,-33.3,-20.25
24927,26.19,998.62,122.55,313.19,-1.37,-96.44,-0.45,11.83,-1.06,-0.45,11.83,-1.06,-0.45,11.83,-1.06,0,0,0,0,0,0,27.76,-0.46,-9.88,-1.72,0,0.02,-0.01,44.85,-33.3,-20.25
24971,26.19,998.61,122.59,313.31,-1.44,-96.44,-0.03,11.85,-1.41,-0.03,11.85,-1.41,-0.03,11.85,-1.41,0,0,0,0,0,0,27.61,-0.02,-9.84,-0.68,0,0.06,-0.01,44.85,-33.3,-20.25
25014,26.19,998.61,122.6,313.44,-1.44,-96.44,-0.27,11.83,-1.36,-0.27,11.83,-1.36,-0.27,11.83,-1.36,0,0,0,0,0,0,27.71,-0.04,-9.93,-1.21,0,-0.01,0,44.85,-33.3,-20.25
25057,26.19,998.61,122.6,313.44,-1.44,-96.44,-0.56,11.71,-1.01,-0.56,11.71,-1.01,-0.56,11.71,-1.01,0,0,0,0,0,0,27.61,0.14,-9.97,-0.96,-0.01,-0.01,0.01,44.85,-33.3,-20.25
25106,26.19,998.62,122.52,313.44,-1.44,-96.44,-0.2,11.71,-1.58,-0.2,11.71,-1.58,-0.2,11.71,-1.58,0,0,0,0,0,0,28.04,-0.17,-9.94,-1.32,-0.01,-0.01,0.01,44.85,-33.3,-20.25
25148,26.19,998.62,122.53,313.44,-1.44,-96.44,-0.37,11.76,-1.27,-0.37,11.76,-1.27,-0.37,11.76,-1.27,0,0,0,0,0,0,27.57,-0.22,-9.98,-1.21,-0.01,-0.03,0.02,44.85,-33.3,-20.25
25193,26.19,998.62,122.52,313.31,-1.44,-96.44,-0.01,11.72,-1.72,-0.01,11.72,-1.72,-0.01,11.72,-1.72,0,0,0,0,0,0,27.85,-0.19,-9.99,-1.33,0,0,0.01,44.85,-33.3,-20.25
25237,26.19,998.62,122.53,313.31,-1.44,-96.44,-0.18,11.73,-1.38,-0.13,11.76,-1.51,-0.13,11.76,-1.51,0,0,0,0,0,0,27.61,-0.24,-9.95,-1.25,0.01,0,0,44.85,-33.3,-20.25
25287,26.19,998.62,122.49,313.25,-1.37,-96.44,-0.1,11.73,-1.42,-0.15,11.75,-1.39,-0.15,11.75,-1.39,0,0,0,0,0,0,27.76,-0.13,-9.97,-1.11,0,0.02,-0.01,44.85,-33.3,-20.25
25329,26.19,998.62,122.49,313.31,-1.37,-96.44,-0.22,11.73,-1.38,-0.22,11.73,-1.38,-0.22,11.73,-1.38,0,0,0,0,0,0,27.71,-0.11,-9.96,-1.23,0,0.01,-0.01,44.85,-33.3,-20.25
25369,26.19,998.63,122.47,313.37,-1.44,-96.44,-0.33,11.75,-1.2,-0.33,11.75,-1.2,-0.33,11.75,-1.2,0,0,0,0,0,0,27.9,0.02,-9.99,-1.04,0,0.01,0,44.85,-33.3,-20.25
25414,26.19,998.62,122.5,313.37,-1.44,-96.44,-0.38,11.75,-1.36,-0.38,11.75,-1.36,-0.38,11.75,-1.36,0,0,0,0,0,0,27.71,-0.09,-9.93,-1.1,-0.01,0,0,44.85,-33.3,-20.25
25457,26.19,998.63,122.46,313.37,-1.44,-96.44,-0.36,11.74,-1.23,-0.4,11.73,-1.31,-0.4,11.73,-1.31,0,0,0,0,0,0,27.76,0.04,-9.98,-1.1,-0.01,-0.02,0.02,44.85,-33.3,-20.25
25507,26.19,998.62,122.52,313.37,-1.44,-96.44,-0.22,11.74,-1.48,-0.2,11.76,-1.39,-0.2,11.76,-1.39,0,0,0,0,0,0,27.76,-0.15,-10.03,-1.13,-0.01,-0.01,0.01,44.85,-33.3,-20.25
25549,26.19,998.62,122.53,313.37,-1.44,-96.44,-0.14,11.72,-1.5,-0.14,11.72,-1.5,-0.14,11.72,-1.5,0,0,0,0,0,0,27.85,-0.21,-9.99,-1.33,-0.01,-0.01,0.01,44.85,-33.3,-20.25
25597,26.19,998.62,122.49,313.31,-1.37,-96.44,-0.45,11.99,-1.41,-0.45,11.99,-1.41,0.93,11.66,-2.19,0,0,0,0,0,0,27.85,-2.27,-9.81,-2.67,-0.04,0.15,0.02,44.85,-33.3,-20.25
25639,26.19,998.62,122.49,313.5,-1.44,-96.44,-0.6,12.75,0.18,-0.6,12.75,0.18,-0.6,12.75,0.18,0,0,0,0,0,0,28.04,0.09,-11.01,-1.84,-0.01,0.22,0.02,44.85,-33.3,-20.25
25680,26.19,998.62,122.5,313.56,-1.44,-96.44,-0.66,12.15,-1.09,-0.66,12.15,-1.09,-0.66,12.15,-1.09,0,0,0,0,0,0,27.52,0.07,-10.18,-0.84,-0.02,-0.01,0.01,44.85,-33.3,-20.25
25729,26.19,998.63,122.48,313.5,-1.44,-96.44,0.33,12.01,-1.85,0.33,12.01,-1.85,0.33,12.01,-1.85,0,0,0,0,0,0,27.71,-0.5,-9.63,-2.05,0.01,0.04,-0.01,44.85,-33.3,-20.25
25771,26.19,998.62,122.54,313.5,-1.44,-96.44,-0.96,11.75,-0.73,-0.96,11.75,-0.73,-0.96,11.75,-0.73,0,0,0,0,0,0,27.71,-0.46,-10.06,-0.74,-0.01,-0.09,0.01,44.85,-33.3,-20.25
25813,26.19,998.62,122.51,313.44,-1.44,-96.44,0,11.8,-1.66,0,11.8,-1.66,0,11.8,-1.66,0,0,0,0,0,0,27.57,-0.06,-10.05,-1.48,0,-0.01,0.01,44.85,-33.3,-20.25
25858,26.19,998.62,122.5,313.44,-1.44,-96.44,-0.42,11.78,-1,-0.42,11.78,-1,-0.18,11.7,-1.22,0,0,0,0,0,0,27.85,-0.34,-10.1,-1.1,0,-0.07,0.01,44.85,-33.3,-20.25
25908,26.19,998.62,122.5,313.37,-1.44,-96.44,-0.15,11.72,-1.54,-0.16,11.78,-1.44,-0.16,11.78,-1.44,0,0,0,0,0,0,27.61,0.18,-9.99,-0.96,-0.01,-0.02,0.01,44.85,-33.3,-20.25
25953,26.19,998.62,122.53,313.44,-1.44,-96.44,-0.09,11.75,-1.52,-0.09,11.75,-1.52,-0.09,11.75,-1.52,0,0,0,0,0,0,27.85,-0.34,-9.96,-1.47,0,0,0,44.85,-33.3,-20.25
25997,26.19,998.62,122.49,313.37,-1.44,-96.44,-0.23,11.75,-1.27,-0.23,11.75,-1.27,-0.23,11.75,-1.27,0,0,0,0,0,0,27.85,-0.02,-9.96,-0.98,0,0,0,44.85,-33.3,-20.25
26041,26.19,998.63,122.48,313.44,-1.44,-96.44,-0.09,11.75,-1.57,-0.09,11.75,-1.57,-0.09,11.75,-1.57,0,0,0,0,0,0,27.76,-0.17,-9.94,-1.14,0,0.02,0,44.85,-33.3,-20.25
26082,26.19,998.62,122.53,313.44,-1.44,-96.44,-0.43,11.73,-1.33,-0.43,11.73,-1.33,-0.43,11.73,-1.33,0,0,0,0,0,0,28.04,0.22,-9.96,-1.25,0,0,0,44.85,-33.3,-20.25
26131,26.19,998.62,122.52,313.44,-1.44,-96.44,-0.29,11.76,-1.27,-0.29,11.76,-1.27,-0.29,11.76,-1.27,0,0,0,0,0,0,27.85,-0.04,-9.9,-1.02,0,0.01,0.01,44.85,-33.3,-20.25
26171,26.19,998.62,122.55,313.44,-1.44,-96.44,-0.36,11.76,-1.49,-0.36,11.76,-1.49,-0.36,11.76,-1.49,0,0,0,0,0,0,27.76,-0.18,-10.01,-1.22,-0.01,-0.01,0.01,44.85,-33.3,-20.25
26216,26.19,998.62,122.49,313.44,-1.44,-96.44,-0.09,11.78,-1.28,-0.09,11.78,-1.28,-0.09,11.78,-1.28,0,0,0,0,0,0,27.57,-0.08,-9.94,-1.1,-0.01,0,0.01,44.85,-33.3,-20.25
26260,26.19,998.62,122.56,313.44,-1.44,-96.44,-0.25,11.74,-1.5,-0.22,11.72,-1.47,-0.22,11.72,-1.47,0,0,0,0,0,0,27.76,-0.34,-9.99,-1.13,0,-0.01,0.01,48.6,-33.45,-14.4
26302,26.19,998.61,122.58,313.37,-1.37,-96.44,-0.19,11.75,-1.44,-0.19,11.75,-1.44,-0.19,11.75,-1.44,0,0,0,0,0,0,27.52,-0.08,-9.96,-1.27,0,0.01,0,48.6,-33.45,-14.4
26351,26.19,998.61,122.63,313.37,-1.37,-96.5,-0.14,11.75,-1.36,-0.14,11.75,-1.36,-0.14,11.75,-1.36,0,0,0,0,0,0,27.76,-0.26,-9.99,-1.16,0,0.01,0,47.7,-34.35,-14.55
26393,26.19,998.61,122.63,313.37,-1.37,-96.5,-0.27,11.76,-1.45,-0.27,11.76,-1.45,-0.27,11.76,-1.45,0,0,0,0,0,0,27.71,-0.04,-9.95,-1.15,0,0.01,0,47.7,-34.35,-14.55
26437,26.19,998.61,122.63,313.37,-1.37,-96.5,-0.25,11.75,-1.33,-0.25,11.75,-1.33,-0.25,11.75,-1.33,0,0,0,0,0,0,27.71,-0.15,-9.99,-1.15,0,0.01,0,47.7,-34.35,-14.55
26481,26.19,998.61,122.63,313.37,-1.37,-96.5,-0.33,11.74,-1.38,-0.38,11.76,-1.33,-0.38,11.76,-1.33,0,0,0,0,0,0,27.61,-0.01,-9.95,-1.14,-0.01,0,0,48.9,-33.3,-15.3
26531,26.19,998.61,122.6,313.37,-1.37,-96.5,-0.22,11.74,-1.42,-0.16,11.76,-1.4,-0.16,11.76,-1.4,0,0,0,0,0,0,27.71,-0.15,-9.98,-1.18,0,-0.01,0.01,48.9,-33.3,-15.3
26573,26.19,998.6,122.66,313.37,-1.37,-96.5,-0.27,11.74,-1.42,-0.27,11.74,-1.42,-0.27,11.74,-1.42,0,0,0,0,0,0,27.76,-0.19,-10.03,-1.23,0,-0.02,0.01,48.9,-32.85,-13.2
26613,26.19,998.61,122.65,313.37,-1.37,-96.5,-0.11,11.75,-1.4,-0.11,11.75,-1.4,-0.11,11.75,-1.4,0,0,0,0,0,0,28.04,-0.19,-10,-1.21,0,0,0,48.9,-32.85,-13.2
26661,26.19,998.6,122.69,313.37,-1.37,-96.5,-0.23,11.74,-1.43,-0.23,11.74,-1.43,-0.22,11.75,-1.4,0,0,0,0,0,0,27.52,-0.12,-9.99,-1.22,0,0,0,49.05,-32.7,-12
26702,26.19,998.61,122.64,313.37,-1.37,-96.5,-0.11,11.75,-1.36,-0.11,11.75,-1.36,-0.11,11.75,-1.36,0,0,0,0,0,0,27.76,-0.03,-10,-1.2,0,0.01,0,49.05,-32.7,-12
26752,26.19,998.61,122.62,313.37,-1.31,-96.5,-0.18,11.75,-1.38,-0.18,11.75,-1.38,-0.18,11.75,-1.38,0,0,0,0,0,0,27.9,-0.15,-9.95,-1.22,-0.01,0,0,48,-30.15,-10.95
26793,26.19,998.61,122.61,313.37,-1.31,-96.5,-0.29,11.75,-1.41,-0.29,11.75,-1.41,-0.29,11.75,-1.41,0,0,0,0,0,0,27.61,-0.06,-9.96,-1.21,0,0,0,48,-30.15,-10.95
26841,26.19,998.6,122.68,313.37,-1.31,-96.5,-0.24,11.73,-1.36,-0.24,11.73,-1.36,-0.24,11.74,-1.37,0,0,0,0,0,0,27.57,-0.06,-9.96,-1.17,-0.01,0,0.01,48,-30.15,-10.95
26882,26.19,998.6,122.67,313.37,-1.31,-96.5,-0.29,11.76,-1.45,-0.29,11.76,-1.45,-0.29,11.76,-1.45,0,0,0,0,0,0,27.57,-0.08,-9.95,-1.23,0,-0.01,0.01,47.55,-28.95,-11.55
26924,26.19,998.6,122.65,313.37,-1.31,-96.5,-0.23,11.74,-1.4,-0.23,11.74,-1.4,-0.23,11.74,-1.4,0,0,0,0,0,0,27.61,-0.15,-9.92,-1.17,0,0,0.01,47.55,-28.95,-11.55
26980,26.19,998.6,122.67,313.31,-1.31,-96.5,-0.17,11.73,-1.39,-0.17,11.73,-1.39,-0.17,11.73,-1.39,0,0,0,0,0,0,27.76,-0.18,-9.93,-1.16,0,0,0.01,46.65,-28.5,-11.1
27023,26.19,998.6,122.65,313.31,-1.31,-96.5,-0.22,11.76,-1.37,-0.22,11.76,-1.37,-0.22,11.76,-1.37,0,0,0,0,0,0,27.71,-0.12,-9.94,-1.17,0,0,0,46.65,-28.5,-11.1
27065,26.18,998.6,122.66,313.31,-1.31,-96.5,-0.16,11.73,-1.36,-0.16,11.73,-1.36,-0.16,11.73,-1.36,0,0,0,0,0,0,27.85,-0.14,-9.94,-1.08,-0.01,0.01,0,47.1,-29.25,-11.1
27109,26.18,998.61,122.61,313.31,-1.31,-96.5,-0.24,11.72,-1.34,-0.24,11.72,-1.34,-0.24,11.72,-1.34,0,0,0,0,0,0,27.76,-0.18,-10,-1.24,-0.01,0.03,0,47.1,-29.25,-11.1
27161,26.18,998.6,122.66,313.37,-1.31,-96.5,-0.31,11.77,-1.07,-0.31,11.77,-1.07,-0.31,11.77,-1.07,0,0,0,0,0,0,27.52,-0.06,-9.99,-1.09,-0.01,0.01,0.01,46.2,-26.7,-10.95
27204,26.18,998.62,122.55,313.37,-1.31,-96.5,-0.22,11.7,-1.64,-0.22,11.7,-1.64,-0.22,11.7,-1.64,0,0,0,0,0,0,27.71,0.11,-9.92,-1.24,-0.01,-0.02,0.01,46.2,-26.7,-10.95
27245,26.18,998.62,122.57,313.37,-1.31,-96.5,-0.28,11.75,-1.36,-0.28,11.75,-1.36,-0.28,11.75,-1.36,0,0,0,0,0,0,27.76,-0.34,-10.07,-1.2,0,-0.01,0.01,46.2,-26.7,-10.95
27292,26.18,998.61,122.64,313.37,-1.31,-96.5,-0.31,11.74,-1.66,-0.31,11.74,-1.66,-0.58,11.74,-1.54,0,0,0,0,0,0,27.76,0.2,-9.99,-1.24,0.01,-0.01,0.01,46.5,-28.2,-10.2
27334,26.18,998.61,122.61,313.37,-1.31,-96.5,0.05,11.74,-1.39,0.05,11.74,-1.39,0.05,11.74,-1.39,0,0,0,0,0,0,27.85,-0.36,-9.93,-1.28,0,0.01,0.01,46.5,-28.2,-10.2
27383,26.19,998.61,122.58,313.31,-1.31,-96.5,-0.38,11.75,-1.35,-0.39,11.73,-1.18,-0.39,11.73,-1.18,0,0,0,0,0,0,27.9,0.06,-9.94,-0.94,0,-0.04,0.01,46.65,-27.75,-9.6
27428,26.18,998.62,122.56,313.31,-1.31,-96.5,0.11,11.74,-1.31,0.11,11.74,-1.31,0.11,11.74,-1.31,0,0,0,0,0,0,27.61,-0.12,-10.03,-1.04,-0.01,0.02,0,46.65,-27.75,-9.6
27474,26.18,998.61,122.6,313.37,-1.31,-96.5,-0.37,11.75,-1.28,-0.2,11.73,-1.43,-0.2,11.73,-1.43,0,0,0,0,0,0,27.76,-0.12,-10,-1.22,-0.01,-0.02,-0.01,47.55,-26.7,-10.2
27515,26.18,998.61,122.6,313.31,-1.31,-96.5,-0.22,11.74,-1.35,-0.22,11.74,-1.35,-0.22,11.74,-1.35,0,0,0,0,0,0,27.61,-0.07,-9.99,-1.16,-0.01,0.02,0,47.55,-26.7,-10.2
27558,26.18,998.61,122.57,313.37,-1.31,-96.5,-0.37,11.73,-1.54,-0.37,11.73,-1.54,-0.37,11.73,-1.54,0,0,0,0,0,0,27.57,-0.13,-9.98,-1.24,-0.01,-0.01,0,47.25,-27.9,-9.45
27606,26.18,998.62,122.54,313.37,-1.31,-96.5,-0.45,11.74,-1.26,-0.45,11.74,-1.26,-0.45,11.74,-1.26,0,0,0,0,0,0,28.04,0.15,-9.95,-1.05,0,0,0.01,47.25,-27.9,-9.45
27648,26.18,998.61,122.64,313.37,-1.31,-96.5,-0.21,11.74,-1.52,-0.21,11.74,-1.52,-0.21,11.74,-1.52,0,0,0,0,0,0,27.85,-0.24,-9.98,-1.12,-0.01,0,0.02,47.25,-27.9,-9.45
27693,26.18,998.61,122.64,313.31,-1.31,-96.5,-0.24,11.76,-1.21,-0.24,11.76,-1.21,-0.26,11.75,-1.37,0,0,0,0,0,0,27.57,-0.03,-9.98,-1.09,-0.01,-0.01,0.01,46.5,-28.95,-8.4
27736,26.18,998.61,122.57,313.31,-1.31,-96.5,-0.07,11.76,-1.37,-0.07,11.76,-1.37,-0.07,11.76,-1.37,0,0,0,0,0,0,27.76,-0.23,-9.99,-1.2,-0.02,-0.02,0.01,46.5,-28.95,-8.4
27785,26.19,998.61,122.57,313.31,-1.31,-96.56,-0.08,11.73,-1.47,-0.08,11.73,-1.47,-0.08,11.73,-1.47,0,0,0,0,0,0,27.71,-0.19,-10.04,-1.41,-0.02,0.01,0,47.1,-27.75,-9
27827,26.18,998.6,122.67,313.31,-1.31,-96.56,-0.24,11.72,-1.44,-0.24,11.72,-1.44,-0.24,11.72,-1.44,0,0,0,0,0,0,27.85,-0.06,-10,-1.45,-0.01,0,0,47.1,-27.75,-9
27867,26.18,998.6,122.68,313.31,-1.31,-96.62,-0.34,11.75,-1.66,-0.34,11.75,-1.66,-0.34,11.75,-1.66,0,0,0,0,0,0,27.76,-0.21,-10.03,-1.27,0,0,0,45.45,-26.7,-10.5
27915,26.18,998.6,122.71,313.31,-1.31,-96.62,-0.44,11.73,-1.32,-0.45,11.75,-1.57,-0.45,11.75,-1.57,0,0,0,0,0,0,27.95,0.01,-9.98,-1.63,0.01,-0.02,0.01,45.45,-26.7,-10.5
27956,26.19,998.6,122.73,313.31,-1.31,-96.62,-0.33,11.71,-1.05,-0.33,11.71,-1.05,-0.33,11.71,-1.05,0,0,0,0,0,0,27.52,0.04,-9.96,-0.94,0.01,0,0.02,47.4,-26.25,-9.3
28006,26.19,998.6,122.71,313.31,-1.31,-96.62,-0.4,11.79,-1.42,-0.4,11.79,-1.42,-0.4,11.79,-1.42,0,0,0,0,0,0,27.61,0.11,-9.98,-1.12,0.01,-0.04,0.02,47.4,-26.25,-9.3
28047,26.19,998.6,122.7,313.25,-1.31,-96.56,0,11.76,-1.54,0,11.76,-1.54,0,11.76,-1.54,0,0,0,0,0,0,27.76,-0.36,-9.97,-1.17,0.01,-0.01,0.01,47.4,-26.25,-9.3
28095,26.19,998.59,122.74,313.19,-1.31,-96.56,-0.28,11.76,-0.98,-0.28,11.76,-0.98,-0.27,11.76,-1.24,0,0,0,0,0,0,27.52,-0.39,-9.93,-1.32,0.01,0,0.01,45,-25.95,-8.7
28137,26.19,998.59,122.78,313.19,-1.31,-96.56,-0.04,11.73,-1.19,-0.04,11.73,-1.19,-0.04,11.73,-1.19,0,0,0,0,0,0,27.76,-0.14,-10.03,-0.86,0,0.04,0,45,-25.95,-8.7
28178,26.18,998.58,122.83,313.25,-1.31,-96.56,-0.15,11.76,-1.47,-0.15,11.76,-1.47,-0.15,11.76,-1.47,0,0,0,0,0,0,27.95,-0.27,-9.98,-1.11,-0.01,0.01,-0.01,46.2,-26.4,-8.7
28226,26.18,998.59,122.77,313.25,-1.31,-96.56,-0.11,11.72,-0.3,-0.53,11.8,-1.87,-0.53,11.8,-1.87,0,0,0,0,0,0,27.76,0.19,-9.88,-1.44,0.01,0.03,-0.01,46.2,-26.4,-8.7
28268,26.18,998.59,122.78,313.31,-1.37,-96.62,-0.32,11.76,-1.27,-0.32,11.76,-1.27,-0.32,11.76,-1.27,0,0,0,0,0,0,27.57,-0.05,-10,-0.87,-0.02,0,0,45.45,-24.9,-9.15
28312,26.18,998.59,122.78,313.31,-1.37,-96.62,-0.44,11.76,-1.47,-0.44,11.76,-1.47,-0.44,11.76,-1.47,0,0,0,0,0,0,27.95,0.11,-10.03,-1.13,-0.02,0,0.01,45.45,-24.9,-9.15
28356,26.18,998.59,122.76,313.31,-1.37,-96.69,-0.23,11.78,-1.71,-0.11,11.73,-1.54,-0.11,11.73,-1.54,0,0,0,0,0,0,27.57,-0.19,-9.96,-1.41,-0.01,0,0.01,45.45,-24.9,-9.15
28406,26.19,998.6,122.7,313.31,-1.37,-96.69,-0.38,11.72,-1.48,-0.26,11.76,-1.47,-0.26,11.76,-1.47,0,0,0,0,0,0,27.76,-0.38,-9.93,-1.38,0,-0.02,0.01,45.15,-25.05,-9.3
28448,26.19,998.6,122.67,313.25,-1.37,-96.69,0.06,11.76,-1.32,0.06,11.76,-1.32,0.06,11.76,-1.32,0,0,0,0,0,0,27.9,-0.17,-9.94,-1.01,-0.01,0.03,0.01,45.15,-25.05,-9.3
28489,26.18,998.6,122.68,313.25,-1.37,-96.69,-0.43,11.81,-1.46,-0.43,11.81,-1.46,-0.43,11.81,-1.46,0,0,0,0,0,0,27.76,-0.48,-9.98,-0.84,-0.01,-0.1,0,46.8,-24.9,-8.7
28536,26.18,998.6,122.67,313.12,-1.31,-96.69,0.02,11.72,-1.48,0.02,11.72,-1.48,-0.27,11.73,-1.46,0,0,0,0,0,0,27.52,0.01,-10.02,-1.49,-0.01,-0.02,0.01,46.8,-24.9,-8.7
28578,26.19,998.6,122.65,313.06,-1.31,-96.69,-0.3,11.74,-1.8,-0.3,11.74,-1.8,-0.3,11.74,-1.8,0,0,0,0,0,0,27.9,-0.1,-10.01,-1.35,0.02,-0.01,0,44.25,-23.85,-8.4
28626,26.19,998.6,122.66,313.06,-1.31,-96.75,-0.26,11.75,-1.81,-0.26,11.75,-1.81,-0.26,11.75,-1.81,0,0,0,0,0,0,27.76,0,-9.94,-1.24,0.03,0.01,0.01,44.25,-23.85,-8.4
28668,26.18,998.6,122.66,313.06,-1.31,-96.69,-0.2,11.76,-1.25,-0.2,11.76,-1.25,-0.2,11.76,-1.25,0,0,0,0,0,0,27.61,-0.09,-9.92,-0.95,0.02,0.02,0.01,45.45,-23.85,-7.05
28717,26.18,998.61,122.65,313.06,-1.31,-96.62,-0.18,11.76,-1.01,-0.18,11.76,-1.01,-0.25,11.76,-1.03,0,0,0,0,0,0,27.85,-0.15,-9.99,-0.85,-0.01,0,0.01,45.45,-23.85,-7.05
28758,26.18,998.61,122.63,313.06,-1.31,-96.62,-0.02,11.76,-1.06,-0.02,11.76,-1.06,-0.02,11.76,-1.06,0,0,0,0,0,0,27.61,-0.2,-9.98,-0.91,-0.02,0.01,0,45.45,-23.85,-7.05
28800,26.18,998.61,122.6,313,-1.31,-96.56,-0.11,11.75,-1.34,-0.11,11.75,-1.34,-0.11,11.75,-1.34,0,0,0,0,0,0,27.95,-0.27,-9.93,-1.06,-0.03,0,-0.01,44.25,-22.65,-6.6
28849,26.18,998.61,122.57,313.06,-1.31,-96.62,-0.27,11.72,-1.5,-0.27,11.72,-1.5,-0.27,11.72,-1.5,0,0,0,0,0,0,27.76,-0.02,-9.93,-1.3,-0.03,0,-0.01,44.25,-22.65,-6.6
28894,26.18,998.62,122.53,313.06,-1.31,-96.69,-0.37,11.73,-2.21,-0.37,11.73,-2.21,-0.37,11.73,-2.21,0,0,0,0,0,0,27.85,0.03,-9.99,-1.84,0,0,-0.01,45.6,-25.05,-6.9
28939,26.18,998.61,122.57,313.12,-1.37,-96.69,-0.4,11.72,-1.54,-0.45,11.72,-1.7,-0.45,11.72,-1.7,0,0,0,0,0,0,27.71,0.15,-10.03,-1.77,0.02,-0.01,0.01,45.6,-25.05,-6.9
28980,26.18,998.62,122.49,313.12,-1.37,-96.81,-0.41,11.71,-1.8,-0.41,11.71,-1.8,-0.41,11.71,-1.8,0,0,0,0,0,0,27.9,0.21,-9.7,-0.44,0.04,-0.03,0.02,42.75,-21,-6.45
29028,26.18,998.63,122.45,313.25,-1.37,-96.75,-0.57,11.91,-1.36,-0.57,11.91,-1.36,0.26,11.73,-1.76,0,0,0,0,0,0,27.61,0.2,-9.84,-1.88,0.03,-0.15,0.02,42.75,-21,-6.45
29070,26.18,998.63,122.41,313.19,-1.37,-96.62,-0.13,11.72,-0.35,-0.13,11.72,-0.35,-0.13,11.72,-0.35,0,0,0,0,0,0,27.57,-0.59,-9.85,-0.07,0,-0.06,0.02,43.95,-18.9,-6
29111,26.18,998.63,122.4,313.06,-1.37,-96.62,-0.24,11.66,-1.29,-0.24,11.66,-1.29,-0.24,11.66,-1.29,0,0,0,0,0,0,27.57,0.3,-9.95,-1.5,-0.02,0.04,0,43.95,-18.9,-6
29158,26.18,998.63,122.43,313.19,-1.37,-96.69,0.05,11.64,-1.52,0.05,11.64,-1.52,0.23,11.69,-1.39,0,0,0,0,0,0,27.9,-0.43,-10.06,-1.08,-0.02,-0.07,0,43.95,-18.9,-6
29200,26.18,998.62,122.48,313.12,-1.37,-96.69,-0.55,11.7,-1.58,-0.55,11.7,-1.58,-0.55,11.7,-1.58,0,0,0,0,0,0,27.57,0.1,-9.94,-1.48,-0.01,0.08,0.01,45.15,-18.75,-4.05
29250,26.18,998.62,122.53,313.25,-1.37,-96.69,-0.14,11.64,-1.82,-0.33,11.66,-1.48,-0.33,11.66,-1.48,0,0,0,0,0,0,27.61,0.73,-10.12,-1.6,0.02,-0.08,0.02,45.15,-18.75,-4.05
29291,26.18,998.62,122.51,313.12,-1.37,-96.69,-0.3,11.69,-1.43,-0.3,11.69,-1.43,-0.3,11.69,-1.43,0,0,0,0,0,0,27.71,-1.55,-9.96,-1.57,0.01,0.18,0.01,43.95,-18.9,-5.25
29333,26.18,998.63,122.45,313.37,-1.37,-96.62,-0.47,11.65,-1.04,-0.47,11.65,-1.04,-0.47,11.65,-1.04,0,0,0,0,0,0,27.76,0.13,-9.97,-0.88,0,0.04,0.01,43.95,-18.9,-5.25
29375,26.18,998.63,122.42,313.44,-1.37,-96.62,0.04,11.69,-1.25,0.04,11.69,-1.25,0.04,11.69,-1.25,0,0,0,0,0,0,27.76,-0.34,-9.93,-1.2,-0.01,-0.07,0,45,-20.85,-6
29419,26.18,998.63,122.46,313.25,-1.37,-96.62,-0.3,11.66,-1.4,-0.3,11.66,-1.4,-0.45,11.65,-1.5,0,0,0,0,0,0,27.71,0.08,-9.96,-1.28,0,0.04,0,45,-20.85,-6
29470,26.19,998.63,122.43,313.37,-1.37,-96.62,-0.19,11.66,-1.55,-0.28,11.65,-1.49,-0.28,11.65,-1.49,0,0,0,0,0,0,27.9,-0.16,-9.94,-1.22,0.01,0.04,0.01,44.25,-18.9,-5.25
29512,26.18,998.63,122.47,313.44,-1.37,-96.62,-0.39,11.64,-1.37,-0.39,11.64,-1.37,-0.39,11.64,-1.37,0,0,0,0,0,0,27.85,-0.03,-9.98,-1.08,0,-0.07,0.01,44.25,-18.9,-5.25
29554,26.18,998.64,122.38,313.31,-1.37,-96.62,-0.24,11.68,-1.44,-0.24,11.68,-1.44,-0.24,11.68,-1.44,0,0,0,0,0,0,27.52,-0.02,-9.97,-1.17,0,-0.05,0.01,44.25,-18.9,-5.25
29599,26.18,998.64,122.33,313.19,-1.37,-96.62,-0.2,11.71,-1.37,-0.2,11.71,-1.37,-0.21,11.7,-1.33,0,0,0,0,0,0,27.9,-0.03,-9.96,-1.13,0,-0.02,0.02,44.7,-18.6,-4.5
29641,26.18,998.65,122.31,313.12,-1.37,-96.62,-0.33,11.73,-1.43,-0.33,11.73,-1.43,-0.33,11.73,-1.43,0,0,0,0,0,0,27.85,-0.16,-9.96,-1.16,0.01,-0.01,0.01,44.7,-18.6,-4.5
29689,26.18,998.65,122.27,313.06,-1.37,-96.56,-0.18,11.75,-1.36,-0.18,11.75,-1.36,-0.21,11.77,-1.41,0,0,0,0,0,0,27.85,-0.08,-10.04,-1.07,0.01,-0.06,0.01,44.7,-18.6,-4.5
29730,26.18,998.65,122.28,312.94,-1.31,-96.56,-0.2,11.77,-1.28,-0.2,11.77,-1.28,-0.12,11.76,-1.2,0,0,0,0,0,0,27.85,-0.56,-10.09,-0.97,0,0.06,0.01,44.7,-18.6,-4.5
29774,26.18,998.64,122.32,312.94,-1.31,-96.56,-0.4,11.69,-1.5,-0.4,11.69,-1.5,-0.4,11.69,-1.5,0,0,0,0,0,0,27.9,0.11,-9.97,-1.19,0,0.04,0,44.7,-18.6,-4.5
29816,26.18,998.65,122.31,312.94,-1.31,-96.56,0.04,11.73,-1.25,0.04,11.73,-1.25,0.04,11.73,-1.25,0,0,0,0,0,0,27.76,-0.18,-10.02,-1.13,0,0.03,0,44.7,-18.6,-4.5
29866,26.19,998.64,122.32,312.94,-1.31,-96.56,-0.41,11.77,-1.39,-0.41,11.77,-1.39,-0.41,11.77,-1.39,0,0,0,0,0,0,27.76,0,-10.02,-1.13,0,-0.01,-0.01,44.7,-18.6,-4.5
29910,26.19,998.64,122.35,312.94,-1.31,-96.56,-0.2,11.76,-1.27,-0.2,11.76,-1.27,-0.2,11.76,-1.27,0,0,0,0,0,0,27.71,-0.13,-9.87,-0.85,-0.01,-0.01,0.01,44.7,-18.6,-4.5
29952,26.19,998.64,122.39,312.94,-1.31,-96.56,-0.21,11.76,-1.23,-0.21,11.76,-1.23,-0.21,11.76,-1.23,0,0,0,0,0,0,27.76,-0.31,-9.98,-1.1,-0.01,-0.01,0.01,44.7,-18.6,-4.5
29995,26.19,998.64,122.36,312.94,-1.31,-96.56,-0.26,11.74,-1.2,-0.26,11.74,-1.2,-0.26,11.74,-1.2,0,0,0,0,0,0,27.85,-0.09,-9.96,-0.84,-0.03,-0.01,0,44.7,-18.6,-4.5
30036,26.19,998.65,122.26,312.94,-1.31,-96.62,-0.1,11.74,-1.3,-0.1,11.74,-1.3,-0.1,11.74,-1.3,0,0,0,0,0,0,27.85,-0.15,-9.97,-1.22,-0.03,0,0,44.7,-18.6,-4.5
30084,26.19,998.64,122.32,312.87,-1.31,-96.69,-0.29,11.77,-1.61,-0.29,11.77,-1.61,-0.29,11.77,-1.61,0,0,0,0,0,0,27.52,-0.06,-9.99,-1.34,-0.02,-0.03,0,44.7,-18.6,-4.5
30126,26.18,998.64,122.36,312.81,-1.25,-96.75,-0.21,11.7,-1.76,-0.21,11.7,-1.76,-0.21,11.7,-1.76,0,0,0,0,0,0,27.85,-0.11,-9.99,-1.66,0.01,-0.01,0.01,44.7,-18.6,-4.5
30171,26.19,998.64,122.39,312.75,-1.25,-96.81,-0.32,11.76,-1.77,-0.32,11.76,-1.77,-0.29,11.75,-1.7,0,0,0,0,0,0,27.85,0.02,-10.05,-1.37,0.03,-0.04,0.02,44.7,-18.6,-4.5
30214,26.19,998.64,122.33,312.69,-1.25,-96.81,-0.09,11.73,-1.58,-0.09,11.73,-1.58,-0.09,11.73,-1.58,0,0,0,0,0,0,27.71,-0.18,-9.98,-1.33,0.03,0.01,0.01,44.7,-18.6,-4.5
30254,26.19,998.64,122.35,312.69,-1.25,-96.69,-0.14,11.74,-1.34,-0.14,11.74,-1.34,-0.14,11.74,-1.34,0,0,0,0,0,0,27.85,-0.27,-9.97,-1.19,0.03,0.01,0,44.7,-18.6,-4.5
30303,26.19,998.64,122.36,312.69,-1.25,-96.62,-0.09,11.77,-1.02,-0.09,11.77,-1.02,-0.09,11.77,-1.02,0,0,0,0,0,0,27.9,-0.09,-9.98,-0.87,0.01,0.01,0,44.7,-18.6,-4.5
30347,26.19,998.64,122.34,312.75,-1.25,-96.56,-0.01,11.76,-1.15,-0.01,11.76,-1.15,-0.01,11.76,-1.15,0,0,0,0,0,0,27.85,-0.36,-9.96,-0.82,0,0.02,-0.01,44.7,-18.6,-4.5
30393,26.19,998.64,122.36,312.81,-1.25,-96.5,-0.38,11.65,-0.47,-0.38,11.77,-0.47,-0.38,11.77,-0.47,0,0,0,0,0,0,28.04,0.28,-10.18,-1.02,-0.02,-0.01,-0.01,44.7,-18.6,-4.5
30433,26.18,998.64,122.37,312.81,-1.31,-96.56,-0.12,11.66,-1.46,-0.12,11.66,-1.46,-0.12,11.66,-1.46,0,0,0,0,0,0,27.9,-0.07,-9.94,-1.11,-0.03,-0.07,0,44.7,-18.6,-4.5
30481,26.18,998.63,122.43,312.69,-1.25,-96.62,-0.66,11.75,-1.17,-0.66,11.75,-1.17,-0.66,11.75,-1.17,0,0,0,0,0,0,27.57,-0.08,-9.98,-1.39,-0.03,-0.04,0.02,44.7,-18.6,-4.5
30524,26.18,998.63,122.43,312.56,-1.25,-96.69,-0.33,11.68,-1.7,-0.33,11.68,-1.7,-0.33,11.68,-1.7,0,0,0,0,0,0,27.37,0.21,-10.3,-2.52,-0.01,0.04,0.02,44.7,-18.6,-4.5
30566,26.18,998.63,122.41,312.62,-1.25,-96.75,-0.13,11.72,-1.76,-0.13,11.72,-1.76,-0.13,11.72,-1.76,0,0,0,0,0,0,27.57,0,-10.02,-1.18,0,0.01,0.01,44.7,-18.6,-4.5
30610,26.18,998.63,122.46,312.62,-1.25,-96.75,-0.05,11.78,-1.63,-0.05,11.78,-1.63,-0.05,11.78,-1.63,0,0,0,0,0,0,27.76,-0.17,-10,-1.27,0.01,0,0.01,45,-21.15,-4.2
30654,26.18,998.63,122.48,312.62,-1.25,-96.75,0.12,11.74,-1.47,0.03,11.72,-1.32,0.03,11.72,-1.32,0,0,0,0,0,0,27.57,-0.14,-9.96,-0.86,0.01,0.01,0,45,-21.15,-4.2
30704,26.18,998.62,122.54,312.62,-1.25,-96.69,-0.01,11.76,-1.23,-0.08,11.71,-1.2,-0.08,11.71,-1.2,0,0,0,0,0,0,27.57,-0.19,-10.01,-0.89,0.01,-0.01,-0.01,45.9,-20.55,-6.15
30746,26.18,998.62,122.49,312.62,-1.25,-96.69,-0.3,11.71,-1.24,-0.3,11.71,-1.24,-0.3,11.71,-1.24,0,0,0,0,0,0,27.95,-0.23,-9.97,-0.94,-0.01,0.01,0,45.9,-20.55,-6.15
30790,26.18,998.63,122.45,312.62,-1.25,-96.62,-0.41,11.76,-1.29,-0.41,11.76,-1.29,-0.41,11.76,-1.29,0,0,0,0,0,0,27.85,0.13,-9.99,-1.34,-0.01,0,0.01,46.65,-19.8,-5.4
30833,26.18,998.62,122.48,312.62,-1.25,-96.69,-0.13,11.76,-1.28,-0.13,11.76,-1.28,-0.33,11.72,-1.29,0,0,0,0,0,0,27.76,0.03,-9.97,-1.19,-0.01,0.01,0.01,46.65,-19.8,-5.4
30875,26.18,998.63,122.47,312.62,-1.25,-96.69,-0.28,11.74,-1.5,-0.28,11.74,-1.5,-0.28,11.74,-1.5,0,0,0,0,0,0,27.85,-0.05,-9.96,-1.36,-0.01,0,0.01,46.2,-21.15,-6.6
30932,26.18,998.63,122.41,312.56,-1.25,-96.69,-0.02,11.7,-1.22,-0.02,11.7,-1.22,-0.02,11.7,-1.22,0,0,0,0,0,0,27.85,-0.18,-10.11,-0.82,-0.01,-0.04,0,46.2,-21.15,-6.6
30975,26.18,998.64,122.37,312.56,-1.25,-96.62,-0.29,11.74,-0.99,-0.21,11.75,-1.24,-0.21,11.75,-1.24,0,0,0,0,0,0,27.76,-0.24,-10.02,-1.11,-0.01,0,0,46.35,-18.75,-4.65
31022,26.18,998.64,122.34,312.5,-1.25,-96.62,-0.13,11.72,-1.4,-0.13,11.72,-1.4,-0.13,11.72,-1.4,0,0,0,0,0,0,27.9,-0.04,-9.96,-1.13,-0.01,0,0,46.35,-18.75,-4.65
31065,26.18,998.64,122.39,312.5,-1.19,-96.62,-0.25,11.71,-1.42,-0.28,11.68,-1.52,-0.28,11.68,-1.52,0,0,0,0,0,0,27.71,0.01,-9.92,-1.24,0,-0.09,0,46.35,-18.75,-4.65
31115,26.18,998.64,122.36,312.37,-1.19,-96.69,-0.24,11.7,-1.47,-0.08,11.74,-1.53,-0.08,11.74,-1.53,0,0,0,0,0,0,27.9,-0.23,-9.98,-1.21,0,0.01,0.01,46.2,-20.1,-5.25
31156,26.18,998.64,122.36,312.37,-1.19,-96.69,-0.27,11.73,-1.52,-0.27,11.73,-1.52,-0.27,11.73,-1.52,0,0,0,0,0,0,27.76,0.06,-10.02,-1.24,0,0.02,0.01,46.2,-20.1,-5.25
31198,26.18,998.64,122.36,312.44,-1.19,-96.62,-0.01,11.73,-1.23,-0.01,11.73,-1.23,-0.01,11.73,-1.23,0,0,0,0,0,0,27.76,-0.29,-9.99,-0.96,0,0.02,0.01,45.6,-19.05,-5.7
31244,26.18,998.64,122.36,312.44,-1.19,-96.62,-0.23,11.73,-1.47,-0.23,11.73,-1.47,-0.23,11.73,-1.47,0,0,0,0,0,0,27.85,-0.19,-9.96,-0.94,0,0.01,0,45.6,-19.05,-5.7
31287,26.18,998.64,122.34,312.44,-1.19,-96.62,-0.21,11.74,-1.19,-0.21,11.74,-1.19,-0.21,11.74,-1.19,0,0,0,0,0,0,27.71,0.07,-9.92,-0.94,0,-0.02,-0.01,45.75,-19.65,-4.2
31336,26.18,998.64,122.33,312.44,-1.19,-96.62,-0.19,11.73,-1.21,-0.07,11.72,-1.25,-0.07,11.72,-1.25,0,0,0,0,0,0,27.9,-0.19,-9.95,-0.96,-0.01,0.04,0,45.75,-19.65,-4.2
31378,26.18,998.64,122.38,312.5,-1.19,-96.62,-0.27,11.72,-1.33,-0.27,11.72,-1.33,-0.27,11.72,-1.33,0,0,0,0,0,0,27.9,-0.09,-9.97,-1.26,-0.01,0.02,0,44.7,-21.6,-3.45
31419,26.18,998.64,122.37,312.56,-1.19,-96.62,-0.3,11.75,-1.06,-0.3,11.75,-1.06,-0.3,11.75,-1.06,0,0,0,0,0,0,28.04,-0.51,-9.97,-0.9,-0.02,0.07,0.01,44.7,-21.6,-3.45
31466,26.18,998.64,122.36,312.56,-1.19,-96.62,-0.14,11.82,-1.62,-0.42,11.69,-1.29,-0.42,11.69,-1.29,0,0,0,0,0,0,27.95,0.17,-10,-1.31,0,0.06,0,44.7,-21.6,-3.45
31507,26.18,998.62,122.49,312.62,-1.19,-96.62,-0.31,11.73,-1.26,-0.31,11.73,-1.26,-0.31,11.73,-1.26,0,0,0,0,0,0,27.85,-0.26,-9.96,-1.02,-0.01,-0.03,0,45.6,-21,-4.65
31557,26.18,998.63,122.45,312.56,-1.19,-96.62,-0.28,11.69,-1.55,-0.28,11.69,-1.55,-0.28,11.69,-1.55,0,0,0,0,0,0,27.71,-0.18,-10.01,-1.13,-0.01,-0.01,0.01,45.6,-21,-4.65
31598,26.18,998.63,122.41,312.56,-1.19,-96.62,-0.36,11.65,-1.39,-0.36,11.65,-1.39,-0.36,11.65,-1.39,0,0,0,0,0,0,27.85,0.03,-9.95,-1.22,-0.01,-0.06,0.01,45.9,-20.55,-4.35
31642,26.18,998.64,122.37,312.37,-1.19,-96.62,-0.27,11.61,-1.65,-0.27,11.61,-1.65,-0.27,11.61,-1.65,0,0,0,0,0,0,27.71,-0.17,-9.95,-1.25,0,-0.03,0.02,45.9,-20.55,-4.35
31683,26.18,998.63,122.45,312.25,-1.12,-96.69,-0.4,11.58,-1.44,-0.4,11.58,-1.44,-0.4,11.58,-1.44,0,0,0,0,0,0,27.85,-0.01,-9.98,-1.33,0.01,-0.04,0.02,46.35,-18,-4.05
31727,26.18,998.63,122.46,312.12,-1.12,-96.69,0.07,11.55,-1.4,0.12,11.61,-1.25,0.12,11.61,-1.25,0,0,0,0,0,0,27.57,-0.27,-9.98,-1.04,0.01,0.05,0.01,46.35,-18,-4.05
31777,26.18,998.63,122.48,312.19,-1.12,-96.69,-0.07,11.55,-1.43,-0.07,11.55,-1.21,-0.07,11.55,-1.21,0,0,0,0,0,0,27.95,-0.45,-9.97,-0.92,-0.01,0,0.01,47.4,-19.5,-3.3
31822,26.18,998.63,122.46,312.19,-1.06,-96.62,0.03,11.55,-1.09,0.03,11.55,-1.09,0.03,11.55,-1.09,0,0,0,0,0,0,27.52,-0.2,-9.98,-0.94,-0.02,0.01,-0.01,47.4,-19.5,-3.3
31867,26.18,998.63,122.46,312.25,-1.06,-96.62,-0.06,11.63,-1.35,-0.06,11.63,-1.35,-0.19,11.68,-1.28,0,0,0,0,0,0,27.95,-0.02,-9.97,-1.07,-0.02,-0.06,-0.02,47.4,-19.5,-3.3
31909,26.18,998.63,122.44,312.25,-1.12,-96.62,-0.46,11.67,-1.56,-0.46,11.67,-1.56,-0.46,11.67,-1.56,0,0,0,0,0,0,27.76,-0.11,-10,-1.17,-0.02,0.05,0,45.45,-19.35,-3.45
31959,26.18,998.64,122.37,312.37,-1.12,-96.69,-0.4,11.6,-1.61,-0.4,11.6,-1.61,-0.4,11.6,-1.61,0,0,0,0,0,0,27.71,0.07,-9.91,-1.27,-0.02,0.07,-0.01,45.45,-19.35,-3.45
32001,26.18,998.63,122.48,312.62,-1.19,-96.69,-0.48,11.7,-1.74,-0.48,11.7,-1.74,-0.48,11.7,-1.74,0,0,0,0,0,0,27.85,-0.06,-9.98,-1.22,-0.01,-0.11,0.01,46.35,-18,-4.65
32041,26.18,998.63,122.43,312.44,-1.19,-96.75,-0.21,11.66,-1.43,-0.21,11.66,-1.43,-0.21,11.66,-1.43,0,0,0,0,0,0,27.76,-0.32,-9.94,-1.14,-0.01,-0.02,0.02,46.35,-18,-4.65
32086,26.18,998.63,122.44,312.37,-1.12,-96.75,-0.44,11.63,-1.63,-0.44,11.63,-1.63,-0.44,11.63,-1.63,0,0,0,0,0,0,27.85,0.06,-9.96,-1.41,-0.01,0.01,0.02,46.35,-21.3,-4.05
32128,26.18,998.63,122.4,312.31,-1.12,-96.75,-0.16,11.59,-1.53,0.01,11.49,-1.52,0.01,11.49,-1.52,0,0,0,0,0,0,27.57,-0.4,-9.91,-1.14,0,-0.03,0.01,46.35,-21.3,-4.05
32179,26.18,998.63,122.42,312.25,-1.06,-96.81,-0.24,11.42,-1.55,-0.27,11.41,-1.41,-0.27,11.41,-1.41,0,0,0,0,0,0,27.57,-0.11,-9.96,-1.06,0,-0.04,0.01,45.75,-18.15,-4.5
32220,26.18,998.63,122.4,312.06,-1.06,-96.81,0.21,11.4,-1.32,0.21,11.4,-1.32,0.21,11.4,-1.32,0,0,0,0,0,0,27.52,-0.49,-10.03,-1.14,-0.01,0.01,-0.01,45.75,-18.15,-4.5
32267,26.18,998.63,122.47,312.19,-1.06,-96.81,-0.4,11.34,-1.41,-0.4,11.34,-1.41,-0.4,11.34,-1.41,0,0,0,0,0,0,27.95,-0.31,-10,-1.2,-0.01,-0.1,0,45.75,-18.15,-4.5
32309,26.18,998.63,122.42,312,-1.06,-96.81,-0.24,11.3,-1.23,-0.24,11.3,-1.23,-0.24,11.3,-1.23,0,0,0,0,0,0,27.95,0,-9.89,-1.2,-0.01,0.02,0,44.25,-20.1,-4.2
32351,26.18,998.63,122.45,312,-1.06,-96.81,-0.22,11.31,-1.68,-0.22,11.31,-1.68,-0.22,11.31,-1.68,0,0,0,0,0,0,27.85,-0.15,-10.01,-1.36,0,0.05,0.01,44.25,-20.1,-4.2
